Header,foot_Accel_X,foot_Accel_Y,foot_Accel_Z,foot_Gyro_X,foot_Gyro_Y,foot_Gyro_Z,shank_Accel_X,shank_Accel_Y,shank_Accel_Z,shank_Gyro_X,shank_Gyro_Y,shank_Gyro_Z,thigh_Accel_X,thigh_Accel_Y,thigh_Accel_Z,thigh_Gyro_X,thigh_Gyro_Y,thigh_Gyro_Z
0.00578,2.1028271484375,1.39869140625,9.21364013671875,0.010386328251309028,0.0013315805450396189,-0.002396844981071314,9.44595703125,0.24668701171875002,-1.24541015625,0.0671116594699968,-0.03621899082507764,-0.02609897868277653,9.2495654296875,2.23455322265625,-0.6370751953125,0.11824435239951817,-0.0034621094171030094,-0.012516857123372417
0.011592,2.069296875,1.3915063476562501,9.225615234375,0.012250541014364494,0.0015978966540475428,-0.0010652644360316951,9.462722167968751,0.21555175781250002,-1.29091552734375,0.060187440635790776,-0.040213732460196494,-0.025566346464760685,9.2783056640625,2.2752685546875,-0.718505859375,0.10785802414820914,-0.011717908796348646,-0.01810949541253882
0.01742,2.059716796875,1.47533203125,9.22801025390625,0.009321063815277333,0.0010652644360316951,-0.0026631610900792377,9.426796875,0.16525634765625,-1.312470703125,0.0537958540196006,-0.03888215191515687,-0.02343581759269729,9.28549072265625,2.2704785156250002,-0.775986328125,0.08921589651765446,-0.006125270507182247,-0.017843179303530892
0.023228,2.0908520507812502,1.4465917968750002,9.1250244140625,0.0111852765783328,0.0013315805450396189,-0.0010652644360316951,9.436376953125,0.14130615234375002,-1.3172607421875,0.05699164732769569,-0.03968110024218064,-0.02370213370170522,9.20406005859375,2.25850341796875,-0.7831713867187501,0.08149272935642468,-0.007456851052221866,-0.017044230976507122
0.029036,2.07169189453125,1.40587646484375,9.2112451171875,0.010918960469324876,0.0026631610900792377,-0.0021305288720633903,9.45314208984375,0.28021728515625,-1.3460009765625,0.05459480234662437,-0.03382214584400632,-0.025033714246744835,9.1441845703125,2.28005859375,-0.73527099609375,0.07776430383031374,-0.0015978966540475428,-0.012250541014364494
0.034872,2.1315673828125,1.41066650390625,9.11304931640625,0.010652644360316951,-0.0002663161090079238,-0.002396844981071314,9.5178076171875,0.18202148437500001,-1.3316308593750001,0.05352953791059268,-0.03861583580614895,-0.02609897868277653,9.06993896484375,2.3327490234375,-0.77359130859375,0.07323692997717904,-0.005060006071150552,-0.005060006071150552
0.04068,2.05253173828125,1.4082714843750002,9.29986083984375,0.0111852765783328,0.0015978966540475428,-0.0015978966540475428,9.36213134765625,0.25387207031250003,-1.2334350585937501,0.05699164732769569,-0.03701793915210141,-0.02450108202872899,9.04598876953125,2.3207739257812503,-0.6825805664062501,0.07110640110511565,-0.00905474770626941,-0.0013315805450396189
0.046492,2.0261865234375,1.4513818359375001,9.225615234375,0.010386328251309028,0.0002663161090079238,0.0005326322180158476,9.40045166015625,0.22513183593750002,-1.3651611328125002,0.052464273474560986,-0.04074636467821234,-0.022903185374681445,9.14657958984375,2.3543041992187503,-0.65384033203125,0.06657902725198095,-0.010918960469324876,0.0034621094171030094
0.052316,2.0357666015625,1.46335693359375,9.0867041015625,0.006924218834206019,-0.0029294771990871615,-0.0002663161090079238,9.44356201171875,0.2682421875,-1.32444580078125,0.04846953183944213,-0.03861583580614895,-0.02343581759269729,9.15136962890625,2.38304443359375,-0.70892578125,0.07004113666908396,-0.013582121559404112,0.0042610577441267805
0.058128,2.06690185546875,1.504072265625,9.04119873046875,0.006924218834206019,-0.0007989483270237714,-0.0002663161090079238,9.40763671875,0.24189697265625001,-1.3172607421875,0.04287689355027573,-0.03595267471606971,-0.026365294791784455,9.09867919921875,2.2944287109375003,-0.7424560546875001,0.06524744670694133,-0.019174759848570512,0.004527373853134705
0.063936,1.9782861328125,1.46335693359375,9.148974609375001,0.0021305288720633903,0.0002663161090079238,0.0007989483270237714,9.3549462890625,0.28021728515625,-1.30049560546875,0.03888215191515687,-0.04154531300523611,-0.02316950148368937,9.06514892578125,2.3303540039062502,-0.661025390625,0.060986388962814546,-0.017044230976507122,0.0077231671612297895
0.069744,2.0381616210937503,1.4178515625,9.074729003906251,-0.0005326322180158476,0.0005326322180158476,0.0026631610900792377,9.41961181640625,0.24189697265625001,-1.28133544921875,0.0380832035881331,-0.037550571370117254,-0.021305288720633902,9.18489990234375,2.39501953125,-0.6825805664062501,0.04820321573043421,-0.016511598758491276,0.007190534943213942
0.075556,2.10522216796875,1.3843212890625,9.1729248046875,0.003994741635118856,-0.0002663161090079238,0.0,9.433981933593751,0.22513183593750002,-1.30528564453125,0.027164243118808225,-0.041811629114244034,-0.021837920938649752,9.1058642578125,2.4093896484375,-0.70174072265625,0.040213732460196494,-0.022903185374681445,0.006924218834206019
0.081364,2.0549267578125,1.4226416015625,9.09867919921875,0.0042610577441267805,-0.0010652644360316951,0.0015978966540475428,9.44356201171875,0.32811767578125,-1.32923583984375,0.0268979270098003,-0.03648530693408556,-0.019973708175594285,9.0675439453125,2.4477099609375,-0.7328759765625,0.03169161697194293,-0.022636869265673522,0.0077231671612297895
0.08718,2.0261865234375,1.4513818359375001,9.14657958984375,0.0042610577441267805,0.0,0.0013315805450396189,9.3932666015625,0.31374755859375003,-1.3747412109375001,0.022636869265673522,-0.03728425526110933,-0.02103897261162598,9.09867919921875,2.4860302734375,-0.775986328125,0.013582121559404112,-0.024234765919721065,0.010120012142301104
0.092992,2.0549267578125,1.42024658203125,9.1585546875,0.003994741635118856,0.0013315805450396189,0.0013315805450396189,9.36931640625,0.3448828125,-1.2406201171875,0.017310547085515045,-0.03701793915210141,-0.017843179303530892,9.1585546875,2.46447509765625,-0.7520361328125,0.004793689962142628,-0.023968449810713142,0.0111852765783328
0.0988,2.0357666015625,1.40587646484375,9.22801025390625,0.004527373853134705,0.0013315805450396189,-0.0018642127630554665,9.4603271484375,0.37601806640625,-1.36037109375,0.0066579027251980945,-0.03435477806202217,-0.01411475377741996,9.081914062500001,2.48842529296875,-0.7424560546875001,0.004527373853134705,-0.021837920938649752,0.011984224905356571
0.104608,2.0549267578125,1.4418017578125,9.1920849609375,0.003994741635118856,-0.0010652644360316951,0.0005326322180158476,9.374106445312501,0.39278320312500004,-1.40108642578125,-0.0010652644360316951,-0.03701793915210141,-0.011717908796348646,9.089099121093751,2.47884521484375,-0.718505859375,-0.0053263221801584755,-0.02583266257376861,0.012516857123372417
0.110428,2.05732177734375,1.427431640625,9.156159667968751,0.0042610577441267805,-0.0021305288720633903,0.0010652644360316951,9.410031738281251,0.3400927734375,-1.38192626953125,-0.004527373853134705,-0.036751623043093484,-0.004527373853134705,9.072333984375,2.5147705078125,-0.8047265625000001,-0.005858954398174323,-0.02476739813773691,0.010386328251309028
0.116236,2.059716796875,1.51365234375,9.1920849609375,0.0010652644360316951,-0.004793689962142628,0.0021305288720633903,9.4603271484375,0.30177246093750004,-1.4681469726562502,-0.003994741635118856,-0.037550571370117254,-0.003994741635118856,9.18489990234375,2.4069946289062503,-0.8023315429687501,-0.0077231671612297895,-0.02370213370170522,0.006391586616190171
0.122052,2.04295166015625,1.39869140625,9.18010986328125,0.0021305288720633903,-0.0002663161090079238,0.0010652644360316951,9.448352050781251,0.29458740234375,-1.4226416015625,-0.006391586616190171,-0.03542004249805386,-0.004793689962142628,9.18010986328125,2.385439453125,-0.87897216796875,-0.014913702104443732,-0.018375811521546742,0.0015978966540475428
0.127876,2.0166064453125,1.47772705078125,9.1154443359375,0.0018642127630554665,-0.0031957933080950856,0.0007989483270237714,9.37650146484375,0.27542724609375,-1.4465917968750002,-0.0077231671612297895,-0.03542004249805386,-0.0021305288720633903,9.06993896484375,2.3710693359375,-0.9029223632812501,-0.02316950148368937,-0.015446334322459579,0.0
0.133684,2.08606201171875,1.4897021484375002,9.237590332031251,0.0010652644360316951,-0.004527373853134705,0.0015978966540475428,9.3932666015625,0.296982421875,-1.3555810546875,-0.0055926382891664,-0.03462109417103009,-0.002396844981071314,9.12741943359375,2.3423291015625,-0.85502197265625,-0.022903185374681445,-0.017843179303530892,-0.0018642127630554665
0.139496,2.06211181640625,1.4130615234375001,9.15136962890625,-0.0005326322180158476,-0.0021305288720633903,0.0021305288720633903,9.417216796875001,0.21076171875000002,-1.3867163085937502,-0.005858954398174323,-0.0335558297349984,-0.0010652644360316951,9.04598876953125,2.2776635742187503,-0.8286767578125,-0.011451592687340723,-0.021305288720633902,0.0015978966540475428
0.145312,2.08845703125,1.45377685546875,9.1920849609375,0.0,-0.0005326322180158476,0.003994741635118856,9.34776123046875,0.27542724609375,-1.4298266601562502,-0.00905474770626941,-0.03222424918995878,0.0007989483270237714,9.034013671875,2.2561083984375,-0.8574169921875,-0.007989483270237713,-0.02476739813773691,0.0026631610900792377
0.151112,2.1028271484375,1.4705419921875,9.19927001953125,0.0007989483270237714,-0.0002663161090079238,0.005858954398174323,9.40763671875,0.20118164062500002,-1.3962963867187501,-0.0111852765783328,-0.027164243118808225,0.0002663161090079238,9.0388037109375,2.2848486328125,-0.83107177734375,-0.0077231671612297895,-0.02822950755483992,0.0026631610900792377
0.156928,2.0477416992187503,1.44419677734375,9.12262939453125,-0.0018642127630554665,-0.002396844981071314,0.004527373853134705,9.44595703125,0.26584716796875,-1.31965576171875,-0.0111852765783328,-0.029827404208887465,0.0026631610900792377,9.06035888671875,2.3040087890625003,-0.8382568359375,-0.01757686319452297,-0.034088461953014244,0.0010652644360316951
0.162748,2.0645068359375003,1.5184423828125,9.120234375,-0.0034621094171030094,-0.0021305288720633903,0.005060006071150552,9.42919189453125,0.28500732421875,-1.3867163085937502,-0.019441075957578435,-0.02609897868277653,0.004793689962142628,9.0867041015625,2.2752685546875,-0.88855224609375,-0.02024002428460221,-0.03701793915210141,0.0034621094171030094
0.16858,2.059716796875,1.389111328125,9.25196044921875,-0.003728425526110933,-0.003994741635118856,0.004527373853134705,9.43877197265625,0.29458740234375,-1.33402587890625,-0.027963191445831998,-0.03222424918995878,0.0031957933080950856,9.163344726562501,2.2704785156250002,-0.8238867187500001,-0.010386328251309028,-0.04314320965928365,-0.0007989483270237714
0.174392,2.1076171875000003,1.4346166992187501,9.201665039062501,-0.0021305288720633903,-0.003728425526110933,0.0034621094171030094,9.398056640625,0.23231689453125,-1.3460009765625,-0.02902845588186369,-0.03036003642690331,0.0018642127630554665,9.196875,2.29921875,-0.8095166015625,-0.013582121559404112,-0.04234426133225988,0.0007989483270237714
0.180208,2.0645068359375003,1.4418017578125,9.2208251953125,-0.0021305288720633903,-0.002396844981071314,0.003994741635118856,9.44356201171875,0.143701171875,-1.350791015625,-0.03435477806202217,-0.028495823663847845,0.0015978966540475428,9.23280029296875,2.2656884765625,-0.81191162109375,-0.016511598758491276,-0.04074636467821234,0.0031957933080950856
0.186032,2.117197265625,1.4082714843750002,9.208850097656251,0.0018642127630554665,-0.0018642127630554665,0.0026631610900792377,9.48188232421875,0.14130615234375002,-1.36037109375,-0.031425300862935004,-0.03036003642690331,0.0010652644360316951,9.283095703125001,2.251318359375,-0.76880126953125,-0.02370213370170522,-0.03781688747912518,-0.0002663161090079238
0.19184,2.0453466796875,1.4418017578125,9.168134765625,0.0005326322180158476,-0.0015978966540475428,0.0015978966540475428,9.4507470703125,0.14609619140625002,-1.3699511718750002,-0.03222424918995878,-0.029827404208887465,-0.0015978966540475428,9.24238037109375,2.20341796875,-0.76880126953125,-0.03701793915210141,-0.03222424918995878,-0.0010652644360316951
0.197664,2.05732177734375,1.36755615234375,9.24717041015625,-0.0018642127630554665,0.0005326322180158476,0.0031957933080950856,9.395661621093751,0.13651611328125002,-1.39869140625,-0.03036003642690331,-0.028495823663847845,-0.0002663161090079238,9.18968994140625,2.18186279296875,-0.756826171875,-0.0447411063133312,-0.029827404208887465,-0.0034621094171030094
0.203484,2.05013671875,1.40108642578125,9.170529785156251,0.002396844981071314,0.0007989483270237714,0.0010652644360316951,9.44356201171875,0.12214599609375,-1.350791015625,-0.026631610900792378,-0.03036003642690331,-0.0015978966540475428,9.225615234375,2.12677734375,-0.7137158203125,-0.04687163518539458,-0.021305288720633902,-0.0007989483270237714
0.209304,2.10043212890625,1.40108642578125,9.103469238281251,0.0007989483270237714,-0.0013315805450396189,0.0021305288720633903,9.436376953125,0.052690429687500005,-1.3412109375,-0.022903185374681445,-0.0268979270098003,-0.0034621094171030094,9.10825927734375,2.0645068359375003,-0.775986328125,-0.04048004856920442,-0.021571604829641825,-0.0026631610900792377
0.215136,2.04295166015625,1.4801220703125,9.141789550781251,0.0029294771990871615,0.0021305288720633903,0.0005326322180158476,9.532177734375,0.03113525390625,-1.3747412109375001,-0.01757686319452297,-0.02609897868277653,-0.007190534943213942,9.17531982421875,2.136357421875,-0.7999365234375,-0.02956108809987954,-0.02024002428460221,0.0031957933080950856
0.220948,2.11480224609375,1.44419677734375,9.1537646484375,0.002396844981071314,0.0015978966540475428,0.0007989483270237714,9.417216796875001,0.050295410156250005,-1.3555810546875,-0.009321063815277333,-0.028762139772855768,-0.010386328251309028,9.11304931640625,2.0908520507812502,-0.8238867187500001,-0.01890844373956259,-0.02476739813773691,0.006391586616190171
0.22676,2.0645068359375003,1.42024658203125,9.2208251953125,0.003728425526110933,0.0031957933080950856,0.0010652644360316951,9.477092285156251,0.1149609375,-1.37953125,-0.0031957933080950856,-0.025300030355752758,-0.011984224905356571,9.07951904296875,2.07648193359375,-0.7041357421875001,-0.008788431597261484,-0.027430559227816148,0.004793689962142628
0.232576,2.0645068359375003,1.4418017578125,9.21364013671875,0.007190534943213942,-0.0007989483270237714,0.0002663161090079238,9.42919189453125,0.1676513671875,-1.43701171875,-0.002396844981071314,-0.02822950755483992,-0.014381069886427884,9.19927001953125,2.09564208984375,-0.8047265625000001,0.0018642127630554665,-0.02370213370170522,0.0013315805450396189
0.238384,2.0645068359375003,1.4346166992187501,9.208850097656251,0.003994741635118856,0.0010652644360316951,-0.0021305288720633903,9.462722167968751,0.13651611328125002,-1.37234619140625,-0.004527373853134705,-0.022636869265673522,-0.014381069886427884,9.1250244140625,2.2273681640625003,-0.775986328125,0.003728425526110933,-0.030093720317895388,0.0021305288720633903
0.244188,2.09564208984375,1.41545654296875,9.187294921875,0.0066579027251980945,0.003728425526110933,-0.0029294771990871615,9.43877197265625,0.18202148437500001,-1.3364208984375001,-0.0055926382891664,-0.020772656502618055,-0.015446334322459579,9.1729248046875,2.2537133789062502,-0.8023315429687501,-0.0007989483270237714,-0.03382214584400632,-0.0042610577441267805
0.250008,2.07648193359375,1.40108642578125,9.1729248046875,0.006391586616190171,0.0026631610900792377,0.0015978966540475428,9.4220068359375,0.1484912109375,-1.37713623046875,-0.006391586616190171,-0.02956108809987954,-0.015180018213451656,9.168134765625,2.10043212890625,-0.79754150390625,-0.0010652644360316951,-0.03515372638904594,-0.003728425526110933
0.255836,2.03337158203125,1.4346166992187501,9.21364013671875,0.008522115488253561,0.0031957933080950856,-0.0007989483270237714,9.5178076171875,0.21555175781250002,-1.38192626953125,0.0021305288720633903,-0.025300030355752758,-0.018642127630554665,9.120234375,2.1603076171875,-0.7256909179687501,0.0077231671612297895,-0.033289513625990474,-0.005060006071150552
0.261644,2.09564208984375,1.4250366210937502,9.1825048828125,0.0053263221801584755,0.0029294771990871615,-0.002396844981071314,9.42440185546875,0.076640625,-1.3460009765625,0.006125270507182247,-0.0223705531566656,-0.017843179303530892,9.2208251953125,2.10043212890625,-0.795146484375,0.015180018213451656,-0.027963191445831998,-0.006391586616190171
0.26746,2.0357666015625,1.4513818359375001,9.2208251953125,0.006924218834206019,-0.0002663161090079238,0.0010652644360316951,9.477092285156251,0.143701171875,-1.4705419921875,0.014913702104443732,-0.021571604829641825,-0.01970739206658636,9.156159667968751,2.17228271484375,-0.8238867187500001,0.00985369603329318,-0.021571604829641825,-0.007456851052221866
0.273276,2.0836669921875,1.44419677734375,9.15136962890625,0.0077231671612297895,0.0026631610900792377,0.0007989483270237714,9.378896484375,0.1580712890625,-1.4418017578125,0.01757686319452297,-0.02103897261162598,-0.025033714246744835,9.19927001953125,2.20341796875,-0.8430468750000001,0.015712650431467502,-0.012250541014364494,-0.0021305288720633903
0.27908,2.1076171875000003,1.3460009765625,9.187294921875,0.010386328251309028,0.0018642127630554665,-0.0013315805450396189,9.48667236328125,0.17244140625,-1.3915063476562501,0.022636869265673522,-0.019174759848570512,-0.026631610900792378,9.201665039062501,2.14833251953125,-0.7807763671875,0.028762139772855768,-0.014913702104443732,-0.004793689962142628
0.284888,2.0836669921875,1.4681469726562502,9.1729248046875,0.0077231671612297895,0.0010652644360316951,-0.0002663161090079238,9.45314208984375,0.19878662109375,-1.36276611328125,0.024234765919721065,-0.019441075957578435,-0.028762139772855768,9.1537646484375,2.10522216796875,-0.67300048828125,0.0380832035881331,-0.011451592687340723,-0.005060006071150552
0.290704,2.10522216796875,1.3915063476562501,9.134604492187501,0.008255799379245638,0.005858954398174323,-0.0013315805450396189,9.40763671875,0.18441650390625,-1.3699511718750002,0.03222424918995878,-0.021571604829641825,-0.025033714246744835,9.1825048828125,2.2010229492187503,-0.718505859375,0.03728425526110933,-0.0167779148674992,-0.004793689962142628
0.296508,2.06211181640625,1.4322216796875,9.33818115234375,0.009321063815277333,0.004793689962142628,-0.003994741635118856,9.45793212890625,0.17004638671875,-1.350791015625,0.036751623043093484,-0.02024002428460221,-0.027696875336824075,9.21843017578125,2.1842578125000003,-0.8454418945312501,0.03595267471606971,-0.010120012142301104,-0.00905474770626941
0.30232,2.10522216796875,1.4681469726562502,9.194479980468751,0.010386328251309028,0.0053263221801584755,-0.003728425526110933,9.5178076171875,0.22752685546875,-1.3962963867187501,0.04154531300523611,-0.01970739206658636,-0.029294771990871615,9.2112451171875,2.22976318359375,-0.85023193359375,0.047936899621426284,-0.003994741635118856,-0.0055926382891664
0.308136,2.05732177734375,1.43940673828125,9.28549072265625,0.0111852765783328,0.0018642127630554665,-0.0015978966540475428,9.4315869140625,0.1197509765625,-1.4418017578125,0.04767058351241836,-0.018642127630554665,-0.02609897868277653,9.18968994140625,2.2273681640625003,-0.9148974609375,0.05992112452678285,-0.0013315805450396189,-0.006391586616190171
0.313952,2.00942138671875,1.4897021484375002,9.28070068359375,0.008255799379245638,0.0053263221801584755,-0.002396844981071314,9.4794873046875,0.19639160156250002,-1.38192626953125,0.05219795736555306,-0.019973708175594285,-0.027963191445831998,9.148974609375001,2.3638842773437503,-0.871787109375,0.06844324001503642,0.003994741635118856,-0.0042610577441267805
0.31976,2.1243823242187503,1.4681469726562502,9.216035156250001,0.007989483270237713,0.005858954398174323,-0.002396844981071314,9.49625244140625,0.29458740234375,-1.47772705078125,0.060986388962814546,-0.019174759848570512,-0.030093720317895388,9.15136962890625,2.2872436523437503,-0.81670166015625,0.07217166554114735,0.0,-0.0077231671612297895
0.325588,2.0549267578125,1.4561718750000001,9.10825927734375,0.007456851052221866,0.004793689962142628,-0.005060006071150552,9.44595703125,0.23231689453125,-1.37713623046875,0.06231796950785416,-0.021305288720633902,-0.03036003642690331,9.201665039062501,2.308798828125,-0.8861572265625001,0.07137271721412357,0.0053263221801584755,-0.003728425526110933
0.331408,2.0070263671875,1.45856689453125,9.1729248046875,0.009587379924285256,0.008255799379245638,-0.003994741635118856,9.36213134765625,0.28021728515625,-1.46335693359375,0.05858954398174323,-0.017843179303530892,-0.030626352535911235,9.1154443359375,2.3471191406250003,-0.8095166015625,0.07376956219519488,0.007989483270237713,-0.005858954398174323
0.337216,2.07169189453125,1.4561718750000001,9.117839355468751,0.007190534943213942,0.0066579027251980945,-0.0042610577441267805,9.3932666015625,0.316142578125,-1.44898681640625,0.05885586009075116,-0.018375811521546742,-0.025566346464760685,9.10825927734375,2.41657470703125,-0.833466796875,0.07084008499610772,0.008522115488253561,-0.006125270507182247
0.343024,1.99984130859375,1.4226416015625,9.04598876953125,0.006391586616190171,0.0077231671612297895,-0.0026631610900792377,9.436376953125,0.29937744140625,-1.4178515625,0.05912217619975908,-0.019441075957578435,-0.026365294791784455,9.08430908203125,2.37825439453125,-0.83586181640625,0.07110640110511565,0.006924218834206019,-0.010918960469324876
0.348844,2.0549267578125,1.4346166992187501,9.16094970703125,0.006391586616190171,0.007989483270237713,-0.003728425526110933,9.43877197265625,0.29937744140625,-1.3867163085937502,0.05459480234662437,-0.016245282649483352,-0.02583266257376861,9.06514892578125,2.44531494140625,-0.8047265625000001,0.07962851659336921,0.007190534943213942,-0.0066579027251980945
0.354656,2.03337158203125,1.4609619140625,9.194479980468751,0.0053263221801584755,0.0077231671612297895,-0.0013315805450396189,9.40045166015625,0.40475830078125,-1.38192626953125,0.047936899621426284,-0.016511598758491276,-0.02476739813773691,9.053173828125,2.42136474609375,-0.8262817382812501,0.07270429775916319,0.008255799379245638,-0.007989483270237713
0.360468,2.03337158203125,1.4346166992187501,9.254355468750001,0.004793689962142628,0.004793689962142628,0.0007989483270237714,9.40763671875,0.3975732421875,-1.44898681640625,0.043675841877299504,-0.01810949541253882,-0.022636869265673522,9.02682861328125,2.4932153320312502,-0.8765771484375,0.07376956219519488,-0.0013315805450396189,-0.004793689962142628
0.366284,2.0836669921875,1.44419677734375,9.225615234375,0.003728425526110933,0.007456851052221866,-0.003728425526110933,9.448352050781251,0.41912841796875,-1.4681469726562502,0.04154531300523611,-0.01757686319452297,-0.026365294791784455,8.95976806640625,2.5267456054687503,-1.0394384765625,0.07137271721412357,-0.010120012142301104,-0.0077231671612297895
0.372096,2.07169189453125,1.5112573242187501,9.08430908203125,0.0034621094171030094,0.006924218834206019,-0.0034621094171030094,9.378896484375,0.45026367187500005,-1.35797607421875,0.033289513625990474,-0.015712650431467502,-0.022636869265673522,9.12741943359375,2.4501049804687502,-0.9148974609375,0.04980111238448175,-0.015446334322459579,-0.006924218834206019
0.377928,2.06211181640625,1.47533203125,9.261540527343751,0.0034621094171030094,0.003728425526110933,0.0005326322180158476,9.448352050781251,0.4454736328125,-1.3843212890625,0.028762139772855768,-0.015712650431467502,-0.01757686319452297,9.053173828125,2.5267456054687503,-0.9053173828125001,0.03648530693408556,-0.0111852765783328,-0.007989483270237713
0.383736,2.0357666015625,1.48730712890625,9.16094970703125,0.003994741635118856,0.003728425526110933,-0.0002663161090079238,9.60163330078125,0.44786865234375,-1.4561718750000001,0.019973708175594285,-0.015978966540475426,-0.013848437668412037,9.148974609375001,2.6129663085937502,-0.871787109375,0.03036003642690331,-0.010918960469324876,-0.003994741635118856
0.38954,1.983076171875,1.47772705078125,9.297465820312501,0.002396844981071314,0.0034621094171030094,-0.0002663161090079238,9.44595703125,0.4358935546875,-1.3531860351562501,0.011984224905356571,-0.013049489341388266,-0.00985369603329318,9.09867919921875,2.557880859375,-0.929267578125,0.025566346464760685,-0.014913702104443732,-0.005060006071150552
0.39536,2.06211181640625,1.5064672851562502,9.13220947265625,0.0013315805450396189,0.0,0.0015978966540475428,9.48188232421875,0.31374755859375003,-1.50167724609375,0.0029294771990871615,-0.010652644360316951,-0.0077231671612297895,9.13220947265625,2.615361328125,-0.9651928710937501,0.012516857123372417,-0.019441075957578435,-0.007190534943213942
0.401172,2.0309765625000002,1.4705419921875,9.117839355468751,-0.0002663161090079238,0.0021305288720633903,0.002396844981071314,9.3645263671875,0.39517822265625,-1.41545654296875,0.005060006071150552,-0.013049489341388266,-0.006125270507182247,9.1825048828125,2.57464599609375,-0.9077124023437501,-0.0018642127630554665,-0.0111852765783328,-0.0053263221801584755
0.406984,2.04295166015625,1.4298266601562502,9.1825048828125,-0.0029294771990871615,-0.0010652644360316951,0.0034621094171030094,9.48667236328125,0.40954833984375,-1.47533203125,-0.003728425526110933,-0.006924218834206019,-0.006391586616190171,9.036408691406251,2.4740551757812503,-0.996328125,-0.0111852765783328,-0.014913702104443732,-0.007989483270237713
0.4128,2.0908520507812502,1.5064672851562502,9.117839355468751,-0.0026631610900792377,-0.0005326322180158476,0.003994741635118856,9.44595703125,0.40475830078125,-1.4849121093750002,-0.010386328251309028,-0.009321063815277333,-0.0031957933080950856,9.081914062500001,2.442919921875,-0.8957373046875,-0.012250541014364494,-0.019441075957578435,-0.0077231671612297895
0.418608,2.0213964843750003,1.45856689453125,9.072333984375,-0.0031957933080950856,-0.0005326322180158476,0.0034621094171030094,9.417216796875001,0.29937744140625,-1.43701171875,-0.016245282649483352,-0.010120012142301104,-0.004793689962142628,9.06514892578125,2.43573486328125,-0.99393310546875,-0.015712650431467502,-0.021837920938649752,-0.007190534943213942
0.424412,2.05732177734375,1.5088623046875,9.156159667968751,-0.0031957933080950856,0.0010652644360316951,0.0053263221801584755,9.5273876953125,0.296982421875,-1.48251708984375,-0.011717908796348646,-0.010652644360316951,-0.0005326322180158476,9.053173828125,2.43573486328125,-0.8622070312500001,-0.018375811521546742,-0.02450108202872899,-0.0066579027251980945
0.430232,2.07648193359375,1.4034814453125,9.20406005859375,-0.0015978966540475428,0.0026631610900792377,0.0031957933080950856,9.37650146484375,0.25387207031250003,-1.41066650390625,-0.015180018213451656,-0.008255799379245638,0.002396844981071314,8.98611328125,2.39262451171875,-0.8238867187500001,-0.007456851052221866,-0.03169161697194293,-0.0018642127630554665
0.43604,2.0381616210937503,1.5064672851562502,9.1729248046875,-0.0042610577441267805,-0.0013315805450396189,0.005858954398174323,9.45793212890625,0.239501953125,-1.48251708984375,-0.014647385995435807,-0.005858954398174323,0.0007989483270237714,9.08430908203125,2.42615478515625,-0.8669970703125001,-0.007989483270237713,-0.0268979270098003,-0.0026631610900792377
0.441852,2.06211181640625,1.4681469726562502,9.254355468750001,-0.004527373853134705,-0.0010652644360316951,0.004527373853134705,9.35255126953125,0.277822265625,-1.4250366210937502,-0.0111852765783328,-0.00985369603329318,0.0026631610900792377,9.12262939453125,2.3423291015625,-0.7640112304687501,-0.009321063815277333,-0.027963191445831998,-0.003728425526110933
0.447664,2.02858154296875,1.4130615234375001,9.21843017578125,-0.0018642127630554665,-0.0031957933080950856,0.006391586616190171,9.477092285156251,0.27063720703125,-1.37713623046875,-0.007989483270237713,-0.007456851052221866,0.0029294771990871615,9.1729248046875,2.4093896484375,-0.833466796875,-0.01411475377741996,-0.022636869265673522,-0.0026631610900792377
0.45348,2.00942138671875,1.4944921875000001,9.14657958984375,-0.0013315805450396189,-0.0034621094171030094,0.007456851052221866,9.41961181640625,0.21794677734375,-1.37234619140625,-0.011984224905356571,-0.006924218834206019,-0.0013315805450396189,9.141789550781251,2.30640380859375,-0.756826171875,-0.0167779148674992,-0.019441075957578435,-0.0018642127630554665
0.459284,2.059716796875,1.44898681640625,9.194479980468751,-0.0005326322180158476,-0.0021305288720633903,0.004793689962142628,9.40045166015625,0.23231689453125,-1.33402587890625,-0.007989483270237713,-0.0055926382891664,-0.0029294771990871615,9.1441845703125,2.366279296875,-0.77838134765625,-0.013582121559404112,-0.025566346464760685,0.0007989483270237714
0.465096,2.117197265625,1.41066650390625,9.16094970703125,-0.003994741635118856,0.0005326322180158476,0.006391586616190171,9.37171142578125,0.20597167968750002,-1.3843212890625,-0.0029294771990871615,-0.0055926382891664,-0.0055926382891664,9.21364013671875,2.3519091796875,-0.7855664062500001,-0.01810949541253882,-0.0223705531566656,-0.0002663161090079238
0.470912,2.07648193359375,1.41545654296875,9.20406005859375,-0.0007989483270237714,0.0013315805450396189,0.003728425526110933,9.42440185546875,0.18441650390625,-1.4322216796875,-0.0018642127630554665,-0.0053263221801584755,-0.0034621094171030094,9.225615234375,2.26808349609375,-0.737666015625,-0.019973708175594285,-0.022636869265673522,0.0015978966540475428
0.476724,2.02379150390625,1.4681469726562502,9.2112451171875,0.002396844981071314,-0.0007989483270237714,0.004527373853134705,9.49625244140625,0.20597167968750002,-1.302890625,0.0007989483270237714,-0.0042610577441267805,-0.003994741635118856,9.223220214843751,2.24892333984375,-0.83586181640625,-0.021571604829641825,-0.02343581759269729,-0.003728425526110933
0.482524,2.0740869140625002,1.504072265625,9.1441845703125,-0.0013315805450396189,0.0018642127630554665,0.0013315805450396189,9.44356201171875,0.21315673828125,-1.37713623046875,0.004793689962142628,0.0002663161090079238,-0.004527373853134705,9.263935546875,2.26808349609375,-0.8861572265625001,-0.022903185374681445,-0.0223705531566656,-0.003728425526110933
0.48834,2.1076171875000003,1.4418017578125,9.0771240234375,-0.0013315805450396189,0.0005326322180158476,0.003994741635118856,9.448352050781251,0.2347119140625,-1.4034814453125,0.0013315805450396189,-0.0021305288720633903,-0.004793689962142628,9.273515625,2.31119384765625,-0.8430468750000001,-0.015180018213451656,-0.015978966540475426,0.0013315805450396189
0.494152,2.00942138671875,1.4465917968750002,9.19927001953125,-0.0026631610900792377,0.0015978966540475428,0.006125270507182247,9.43877197265625,0.19639160156250002,-1.44419677734375,0.004793689962142628,-0.0015978966540475428,-0.007456851052221866,9.22801025390625,2.14354248046875,-0.7807763671875,-0.006924218834206019,-0.014913702104443732,-0.0018642127630554665
0.499968,2.0453466796875,1.4944921875000001,9.20406005859375,-0.0042610577441267805,0.0007989483270237714,0.003728425526110933,9.44356201171875,0.17962646484375,-1.43701171875,0.013582121559404112,-0.0034621094171030094,-0.01411475377741996,9.15136962890625,2.1339624023437502,-0.77838134765625,-0.0018642127630554665,-0.0167779148674992,-0.004527373853134705
0.505784,2.01900146484375,1.45377685546875,9.1825048828125,-0.0031957933080950856,-0.0018642127630554665,0.005060006071150552,9.388476562500001,0.24908203125,-1.4513818359375001,0.01411475377741996,-0.004793689962142628,-0.013848437668412037,9.120234375,2.1124072265625,-0.9029223632812501,-0.0007989483270237714,-0.014647385995435807,-0.004527373853134705
0.511612,2.04295166015625,1.45377685546875,9.18968994140625,-0.0042610577441267805,-0.0031957933080950856,0.0042610577441267805,9.48188232421875,0.24908203125,-1.50167724609375,0.016245282649483352,-0.003994741635118856,-0.01411475377741996,9.163344726562501,2.2273681640625003,-0.83586181640625,0.015180018213451656,-0.015180018213451656,-0.0031957933080950856
0.517416,2.0453466796875,1.4609619140625,9.16094970703125,-0.0026631610900792377,-0.0029294771990871615,0.0053263221801584755,9.54415283203125,0.21794677734375,-1.350791015625,0.02103897261162598,-0.0026631610900792377,-0.013582121559404112,9.156159667968751,2.20341796875,-0.7640112304687501,0.025033714246744835,-0.016511598758491276,-0.00905474770626941
0.52324,2.01181640625,1.4992822265625,9.216035156250001,-0.002396844981071314,-0.002396844981071314,0.003994741635118856,9.47230224609375,0.20357666015625,-1.3555810546875,0.022903185374681445,-0.0029294771990871615,-0.011717908796348646,9.170529785156251,2.2752685546875,-0.89813232421875,0.03115898475392708,-0.014647385995435807,-0.009321063815277333
0.52906,2.05732177734375,1.465751953125,9.15136962890625,-0.0021305288720633903,0.0,0.0031957933080950856,9.40045166015625,0.21794677734375,-1.3531860351562501,0.025300030355752758,-0.0055926382891664,-0.015446334322459579,9.16573974609375,2.289638671875,-0.83586181640625,0.04580637074936289,-0.010120012142301104,-0.008522115488253561
0.534872,2.01181640625,1.4609619140625,9.141789550781251,-0.0042610577441267805,-0.0013315805450396189,0.0026631610900792377,9.374106445312501,0.21315673828125,-1.4513818359375001,0.028495823663847845,-0.010386328251309028,-0.010386328251309028,9.0867041015625,2.18186279296875,-0.77359130859375,0.05965480841777493,-0.013582121559404112,-0.008788431597261484
0.540692,2.01181640625,1.48251708984375,9.177714843750001,-0.0021305288720633903,-0.0002663161090079238,0.003994741635118856,9.426796875,0.20357666015625,-1.35797607421875,0.029827404208887465,-0.011717908796348646,-0.012250541014364494,9.22801025390625,2.32556396484375,-0.87897216796875,0.04900216405745798,-0.012250541014364494,-0.012250541014364494
0.546508,2.0142114257812502,1.3915063476562501,9.13220947265625,-0.0013315805450396189,-0.0015978966540475428,0.007989483270237713,9.357341308593751,0.22752685546875,-1.3148657226562501,0.0268979270098003,-0.012783173232380343,-0.015978966540475426,9.141789550781251,2.34472412109375,-0.83107177734375,0.042610577441267804,0.0002663161090079238,-0.007456851052221866
0.55232,2.05013671875,1.427431640625,9.134604492187501,0.0005326322180158476,-0.0015978966540475428,0.0034621094171030094,9.398056640625,0.21076171875000002,-1.3843212890625,0.025566346464760685,-0.00985369603329318,-0.017310547085515045,9.04598876953125,2.308798828125,-0.85502197265625,0.04314320965928365,-0.005858954398174323,-0.00905474770626941
0.558152,2.040556640625,1.50167724609375,9.1825048828125,-0.0026631610900792377,-0.002396844981071314,0.004527373853134705,9.41482177734375,0.16525634765625,-1.23822509765625,0.02343581759269729,-0.012783173232380343,-0.021571604829641825,9.170529785156251,2.366279296875,-0.8238867187500001,0.04048004856920442,-0.0010652644360316951,-0.00985369603329318
0.56396,2.02858154296875,1.4322216796875,9.29507080078125,0.0007989483270237714,0.002396844981071314,0.0031957933080950856,9.48188232421875,0.26105712890625,-1.302890625,0.02583266257376861,-0.014381069886427884,-0.021837920938649752,9.11304931640625,2.2848486328125,-0.7041357421875001,0.03036003642690331,-0.0042610577441267805,-0.0055926382891664
0.569776,2.0980371093750003,1.37953125,9.21843017578125,0.0013315805450396189,0.0026631610900792377,0.0015978966540475428,9.43877197265625,0.229921875,-1.2717553710937501,0.025566346464760685,-0.00905474770626941,-0.017843179303530892,9.117839355468751,2.28005859375,-0.8214916992187501,0.027430559227816148,-0.002396844981071314,-0.0029294771990871615
0.575584,2.1028271484375,1.45377685546875,9.10107421875,0.002396844981071314,0.0015978966540475428,0.0021305288720633903,9.436376953125,0.35685791015625,-1.36276611328125,0.02024002428460221,-0.010918960469324876,-0.014913702104443732,9.20406005859375,2.4740551757812503,-0.833466796875,0.030626352535911235,-0.003728425526110933,-0.004793689962142628
0.581396,2.0357666015625,1.4609619140625,9.148974609375001,0.0029294771990871615,0.0021305288720633903,0.0005326322180158476,9.462722167968751,0.34727783203125,-1.34360595703125,0.018642127630554665,-0.0053263221801584755,-0.017310547085515045,9.18968994140625,2.47166015625,-0.81191162109375,0.019174759848570512,0.0066579027251980945,-0.0021305288720633903
0.587208,2.0142114257812502,1.37953125,9.156159667968751,-0.0013315805450396189,0.0042610577441267805,0.0,9.41482177734375,0.3496728515625,-1.2885205078125002,0.014913702104443732,-0.008788431597261484,-0.014913702104443732,9.03161865234375,2.4333398437500002,-0.7424560546875001,0.021837920938649752,-0.006125270507182247,0.007456851052221866
0.593024,2.0836669921875,1.45856689453125,9.196875,0.0031957933080950856,0.0015978966540475428,0.0005326322180158476,9.3932666015625,0.3592529296875,-1.37953125,0.0077231671612297895,-0.012250541014364494,-0.01810949541253882,8.995693359375,2.4093896484375,-0.7616162109375001,0.021571604829641825,-0.007190534943213942,0.012516857123372417
0.598832,2.05732177734375,1.48251708984375,9.16094970703125,0.0042610577441267805,0.0029294771990871615,-0.0002663161090079238,9.3453662109375,0.28740234375,-1.32444580078125,0.003994741635118856,-0.014647385995435807,-0.017310547085515045,9.10825927734375,2.46926513671875,-0.8023315429687501,0.017843179303530892,-0.013315805450396189,0.005060006071150552
0.604636,2.0357666015625,1.47533203125,9.223220214843751,0.004793689962142628,0.003994741635118856,0.0013315805450396189,9.477092285156251,0.36164794921875004,-1.36037109375,0.007989483270237713,-0.0111852765783328,-0.015712650431467502,9.08430908203125,2.42615478515625,-0.910107421875,-0.009321063815277333,-0.0015978966540475428,0.011451592687340723
0.610444,2.0381616210937503,1.51365234375,9.18489990234375,0.0010652644360316951,0.0034621094171030094,0.0007989483270237714,9.38608154296875,0.22513183593750002,-1.43701171875,0.007989483270237713,-0.010386328251309028,-0.014913702104443732,9.0388037109375,2.4956103515625,-0.9651928710937501,-0.027963191445831998,0.002396844981071314,0.013582121559404112
0.616264,2.1028271484375,1.4226416015625,9.18968994140625,0.0021305288720633903,0.0026631610900792377,-0.0007989483270237714,9.33818115234375,0.33769775390625,-1.37713623046875,0.012783173232380343,-0.00985369603329318,-0.015180018213451656,9.0867041015625,2.36867431640625,-0.93884765625,-0.012783173232380343,-0.0002663161090079238,0.010918960469324876
0.622076,1.9950512695312501,1.43701171875,9.1729248046875,0.0013315805450396189,0.002396844981071314,0.0005326322180158476,9.398056640625,0.33290771484375004,-1.32444580078125,0.010918960469324876,-0.008255799379245638,-0.012516857123372417,9.141789550781251,2.5099804687500002,-0.9651928710937501,-0.013848437668412037,-0.0018642127630554665,0.006125270507182247
0.627892,2.1028271484375,1.50167724609375,9.170529785156251,-0.0005326322180158476,0.0031957933080950856,0.0018642127630554665,9.41482177734375,0.4263134765625,-1.4034814453125,0.009587379924285256,-0.00985369603329318,-0.011984224905356571,8.98611328125,2.4333398437500002,-0.8574169921875,0.007190534943213942,-0.005060006071150552,0.007190534943213942
0.633708,2.0070263671875,1.4944921875000001,9.17531982421875,0.0010652644360316951,-0.0005326322180158476,0.004527373853134705,9.4507470703125,0.4358935546875,-1.3939013671875,0.006391586616190171,-0.007190534943213942,-0.008255799379245638,9.18489990234375,2.70876708984375,-0.89813232421875,-0.0005326322180158476,0.00905474770626941,0.003728425526110933
0.639508,2.06690185546875,1.45856689453125,9.216035156250001,0.0002663161090079238,-0.0021305288720633903,0.003994741635118856,9.4124267578125,0.45265869140625004,-1.4681469726562502,0.0055926382891664,-0.007190534943213942,-0.0066579027251980945,9.0771240234375,2.4381298828125,-0.871787109375,0.012783173232380343,-0.008522115488253561,-0.0034621094171030094
0.645324,2.0453466796875,1.4801220703125,9.1441845703125,-0.0026631610900792377,0.0005326322180158476,0.0042610577441267805,9.3645263671875,0.36404296875000003,-1.4178515625,0.0007989483270237714,-0.010386328251309028,-0.0042610577441267805,9.12262939453125,2.2944287109375003,-0.8813671875000001,0.028762139772855768,-0.015712650431467502,-0.004527373853134705
0.65114,1.9471508789062502,1.45856689453125,9.096284179687501,-0.002396844981071314,-0.003728425526110933,0.002396844981071314,9.4507470703125,0.42152343750000004,-1.43940673828125,-0.0005326322180158476,-0.008255799379245638,-0.0029294771990871615,9.340576171875,2.4860302734375,-0.871787109375,-0.02370213370170522,0.01757686319452297,-0.0053263221801584755
0.65694,1.9782861328125,1.5160473632812501,9.170529785156251,-0.003728425526110933,0.0,0.0053263221801584755,9.462722167968751,0.41194335937500004,-1.504072265625,-0.004527373853134705,-0.0042610577441267805,-0.0031957933080950856,8.99808837890625,2.46447509765625,-0.85981201171875,-0.0013315805450396189,0.007989483270237713,0.0055926382891664
0.662748,2.07648193359375,1.4897021484375002,9.10107421875,-0.005858954398174323,-0.0042610577441267805,0.005060006071150552,9.38608154296875,0.28021728515625,-1.4418017578125,0.0007989483270237714,-0.0026631610900792377,-0.0018642127630554665,9.11304931640625,2.366279296875,-0.89813232421875,-0.0029294771990871615,0.005858954398174323,0.0015978966540475428
0.668564,2.07648193359375,1.427431640625,9.134604492187501,-0.004527373853134705,-0.0010652644360316951,0.005858954398174323,9.436376953125,0.25387207031250003,-1.3962963867187501,-0.002396844981071314,-0.003994741635118856,-0.0021305288720633903,9.029223632812501,2.3998095703125,-0.9005273437500001,0.0053263221801584755,-0.0021305288720633903,0.0018642127630554665
0.674364,1.96631103515625,1.5543676757812501,9.120234375,-0.0053263221801584755,0.0005326322180158476,0.005858954398174323,9.4124267578125,0.29458740234375,-1.37953125,-0.0031957933080950856,-0.002396844981071314,-0.0002663161090079238,9.09388916015625,2.41657470703125,-0.85981201171875,-0.009587379924285256,-0.011984224905356571,0.003728425526110933
0.680176,2.0166064453125,1.47533203125,9.170529785156251,-0.0077231671612297895,-0.0018642127630554665,0.0053263221801584755,9.4651171875,0.28500732421875,-1.41066650390625,0.0002663161090079238,-0.0013315805450396189,-0.0007989483270237714,9.09867919921875,2.3303540039062502,-0.83586181640625,-0.004527373853134705,-0.007456851052221866,0.0055926382891664
0.685996,2.0261865234375,1.51365234375,9.1825048828125,-0.008255799379245638,-0.0026631610900792377,0.0053263221801584755,9.388476562500001,0.35685791015625,-1.36755615234375,0.0013315805450396189,-0.0034621094171030094,-0.0010652644360316951,9.053173828125,2.442919921875,-0.9220825195312501,-0.004527373853134705,-0.007456851052221866,0.006125270507182247
0.691804,2.0357666015625,1.51365234375,9.117839355468751,-0.008255799379245638,-0.0013315805450396189,0.0055926382891664,9.4220068359375,0.42870849609375,-1.3651611328125002,-0.0013315805450396189,-0.0018642127630554665,-0.0055926382891664,9.1729248046875,2.48842529296875,-0.9723779296875,-0.009321063815277333,-0.0013315805450396189,0.006125270507182247
0.697616,2.0213964843750003,1.4609619140625,9.225615234375,-0.006924218834206019,-0.0034621094171030094,0.005858954398174323,9.4315869140625,0.30895751953125,-1.40587646484375,-0.0029294771990871615,-0.0002663161090079238,-0.0031957933080950856,9.1154443359375,2.375859375,-0.9148974609375,-0.0066579027251980945,-0.0026631610900792377,0.007989483270237713
0.703444,2.0908520507812502,1.47772705078125,9.2112451171875,-0.007989483270237713,-0.0066579027251980945,0.006125270507182247,9.46751220703125,0.3448828125,-1.41066650390625,-0.010120012142301104,-0.0018642127630554665,-0.0015978966540475428,9.014853515625001,2.4189697265625,-0.7232958984375001,0.004527373853134705,-0.00905474770626941,0.011451592687340723
0.709268,2.0309765625000002,1.504072265625,9.23280029296875,-0.00985369603329318,-0.0021305288720633903,0.007456851052221866,9.42919189453125,0.3113525390625,-1.3316308593750001,-0.010652644360316951,-0.002396844981071314,-0.0015978966540475428,9.1058642578125,2.4836352539062503,-0.8646020507812501,-0.007456851052221866,-0.0042610577441267805,0.013582121559404112
0.71508,2.0309765625000002,1.41066650390625,9.230405273437501,-0.00985369603329318,-0.0029294771990871615,0.006391586616190171,9.42440185546875,0.3879931640625,-1.37953125,-0.013315805450396189,0.0,0.0029294771990871615,9.10825927734375,2.41178466796875,-0.996328125,-0.015712650431467502,-0.0015978966540475428,0.012516857123372417
0.7209,2.0549267578125,1.4513818359375001,9.06993896484375,-0.012516857123372417,-0.0034621094171030094,0.007456851052221866,9.426796875,0.32811767578125,-1.3747412109375001,-0.017843179303530892,-0.003728425526110933,0.0015978966540475428,9.103469238281251,2.33514404296875,-0.8454418945312501,-0.011984224905356571,-0.003728425526110933,0.015180018213451656
0.726716,2.0046313476562503,1.4681469726562502,9.194479980468751,-0.010120012142301104,-0.0021305288720633903,0.0077231671612297895,9.388476562500001,0.30416748046875003,-1.4561718750000001,-0.0167779148674992,-0.0018642127630554665,0.002396844981071314,9.13699951171875,2.35909423828125,-0.833466796875,-0.004793689962142628,-0.0002663161090079238,0.018375811521546742
0.732524,2.0309765625000002,1.4465917968750002,9.141789550781251,-0.011984224905356571,-0.0021305288720633903,0.006391586616190171,9.455537109375001,0.28740234375,-1.4082714843750002,-0.019174759848570512,0.0,-0.0010652644360316951,9.117839355468751,2.3902294921875002,-0.99393310546875,-0.013049489341388266,0.0007989483270237714,0.01411475377741996
0.738348,2.03337158203125,1.4944921875000001,9.201665039062501,-0.00905474770626941,-0.004527373853134705,0.008788431597261484,9.44595703125,0.28261230468750004,-1.47533203125,-0.013848437668412037,0.0026631610900792377,0.0005326322180158476,9.24717041015625,2.39501953125,-0.8574169921875,-0.010120012142301104,0.0111852765783328,0.014647385995435807
0.74416,2.07169189453125,1.43940673828125,9.187294921875,-0.009321063815277333,-0.0029294771990871615,0.007456851052221866,9.455537109375001,0.37122802734375004,-1.43701171875,-0.012783173232380343,0.005858954398174323,-0.0013315805450396189,9.07951904296875,2.4764501953125,-0.9244775390625001,-0.021571604829641825,0.011984224905356571,0.016511598758491276
0.749984,2.09564208984375,1.4705419921875,9.28549072265625,-0.0066579027251980945,-0.0026631610900792377,0.008522115488253561,9.402846679687501,0.36643798828125,-1.4298266601562502,-0.014647385995435807,0.0031957933080950856,0.0026631610900792377,9.13699951171875,2.4908203125,-0.910107421875,-0.021305288720633902,0.008788431597261484,0.006924218834206019
0.755812,2.06211181640625,1.4513818359375001,9.201665039062501,-0.00905474770626941,-0.0042610577441267805,0.0077231671612297895,9.395661621093751,0.4167333984375,-1.45856689453125,-0.019174759848570512,-0.0002663161090079238,0.0010652644360316951,9.1585546875,2.5147705078125,-0.9053173828125001,-0.04074636467821234,0.005858954398174323,0.010386328251309028
0.761624,2.0309765625000002,1.48730712890625,9.1825048828125,-0.010386328251309028,-0.0042610577441267805,0.010652644360316951,9.40763671875,0.3879931640625,-1.4178515625,-0.01890844373956259,0.0026631610900792377,0.004527373853134705,9.022038574218751,2.45968505859375,-0.8957373046875,-0.034887410280038014,0.010652644360316951,0.011451592687340723
0.767428,2.0381616210937503,1.4681469726562502,9.25196044921875,-0.009587379924285256,-0.0029294771990871615,0.009587379924285256,9.43877197265625,0.37601806640625,-1.45856689453125,-0.0223705531566656,0.006924218834206019,0.004793689962142628,9.148974609375001,2.481240234375,-0.85502197265625,-0.04127899689622819,0.012783173232380343,0.013315805450396189
0.773244,2.0477416992187503,1.4250366210937502,9.2351953125,-0.010652644360316951,-0.006391586616190171,0.007989483270237713,9.31902099609375,0.33290771484375004,-1.3867163085937502,-0.0223705531566656,0.0053263221801584755,0.0018642127630554665,9.036408691406251,2.33993408203125,-0.8622070312500001,-0.027430559227816148,0.00985369603329318,0.018375811521546742
0.779052,2.02858154296875,1.47772705078125,9.2351953125,-0.011984224905356571,-0.0053263221801584755,0.012250541014364494,9.441166992187501,0.30177246093750004,-1.3915063476562501,-0.02316950148368937,0.002396844981071314,0.0029294771990871615,9.02682861328125,2.4285498046875,-0.7328759765625,-0.028495823663847845,0.0007989483270237714,0.015446334322459579
0.784864,2.02858154296875,1.4465917968750002,9.177714843750001,-0.009587379924285256,-0.0042610577441267805,0.010120012142301104,9.49146240234375,0.3400927734375,-1.3699511718750002,-0.027696875336824075,0.0042610577441267805,0.004527373853134705,9.08430908203125,2.4189697265625,-0.87897216796875,-0.02103897261162598,-0.0010652644360316951,0.015446334322459579
0.79068,2.0908520507812502,1.4082714843750002,9.201665039062501,-0.0111852765783328,-0.0029294771990871615,0.009321063815277333,9.44595703125,0.38080810546875005,-1.33402587890625,-0.03302319751698255,0.0042610577441267805,0.005060006071150552,9.053173828125,2.3638842773437503,-0.890947265625,-0.025566346464760685,-0.0013315805450396189,0.017044230976507122
0.796488,2.0477416992187503,1.4849121093750002,9.103469238281251,-0.010386328251309028,-0.0031957933080950856,0.0066579027251980945,9.398056640625,0.30177246093750004,-1.3531860351562501,-0.03888215191515687,0.0018642127630554665,0.007190534943213942,9.0052734375,2.3638842773437503,-0.8669970703125001,-0.02343581759269729,-0.0015978966540475428,0.030093720317895388
0.802296,2.07648193359375,1.4944921875000001,9.208850097656251,-0.010652644360316951,-0.003994741635118856,0.008255799379245638,9.398056640625,0.3784130859375,-1.32205078125,-0.0380832035881331,0.0034621094171030094,0.007456851052221866,9.244775390625,2.38304443359375,-0.85502197265625,-0.032490565298966705,-0.0111852765783328,0.010120012142301104
0.808112,2.0357666015625,1.5184423828125,9.2208251953125,-0.011717908796348646,-0.0031957933080950856,0.007989483270237713,9.42440185546875,0.24189697265625001,-1.3843212890625,-0.03515372638904594,0.0029294771990871615,0.00985369603329318,9.290280761718751,2.40220458984375,-0.8646020507812501,-0.042610577441267804,0.0002663161090079238,0.007989483270237713
0.81394,2.0261865234375,1.504072265625,9.148974609375001,-0.008255799379245638,-0.0002663161090079238,0.009321063815277333,9.4603271484375,0.2442919921875,-1.32444580078125,-0.02822950755483992,0.0018642127630554665,0.0031957933080950856,9.1058642578125,2.327958984375,-0.88855224609375,-0.04127899689622819,0.01411475377741996,0.022104237047657675
0.819748,2.0836669921875,1.5376025390625,9.1250244140625,-0.00905474770626941,-0.0018642127630554665,0.00905474770626941,9.40045166015625,0.21315673828125,-1.36276611328125,-0.021571604829641825,0.0031957933080950856,0.006391586616190171,9.09867919921875,2.41178466796875,-0.81670166015625,-0.026365294791784455,0.008522115488253561,0.02583266257376861
0.82556,2.0046313476562503,1.4346166992187501,9.156159667968751,-0.008788431597261484,0.0007989483270237714,0.008255799379245638,9.4507470703125,0.277822265625,-1.3555810546875,-0.02024002428460221,0.0010652644360316951,0.0053263221801584755,9.177714843750001,2.327958984375,-0.8406518554687501,-0.027696875336824075,0.00905474770626941,0.0223705531566656
0.831376,2.01900146484375,1.4034814453125,9.216035156250001,-0.0077231671612297895,-0.0021305288720633903,0.008788431597261484,9.44356201171875,0.27063720703125,-1.34360595703125,-0.014381069886427884,0.0031957933080950856,0.0034621094171030094,9.16573974609375,2.39262451171875,-0.7855664062500001,-0.03462109417103009,0.011984224905356571,0.021571604829641825
0.837176,2.0908520507812502,1.4681469726562502,9.148974609375001,-0.008255799379245638,0.0002663161090079238,0.008522115488253561,9.43877197265625,0.26105712890625,-1.48730712890625,-0.013049489341388266,0.0015978966540475428,0.003994741635118856,9.089099121093751,2.2704785156250002,-0.8430468750000001,-0.02343581759269729,0.0013315805450396189,0.017843179303530892
0.842992,2.05013671875,1.4130615234375001,9.117839355468751,-0.009587379924285256,-0.0002663161090079238,0.008255799379245638,9.3836865234375,0.37601806640625,-1.38192626953125,-0.010652644360316951,0.004793689962142628,0.0034621094171030094,9.225615234375,2.327958984375,-0.852626953125,-0.019174759848570512,0.011717908796348646,0.017310547085515045
0.848808,2.0213964843750003,1.4705419921875,9.27112060546875,-0.007190534943213942,0.002396844981071314,0.005858954398174323,9.45793212890625,0.27063720703125,-1.2310400390625,-0.012516857123372417,0.0026631610900792377,0.0018642127630554665,9.156159667968751,2.404599609375,-0.85023193359375,-0.018375811521546742,0.016511598758491276,0.021837920938649752
0.85462,2.02858154296875,1.44898681640625,9.168134765625,-0.008255799379245638,0.0005326322180158476,0.007989483270237713,9.426796875,0.23710693359375,-1.34360595703125,-0.013315805450396189,0.0002663161090079238,0.006391586616190171,9.208850097656251,2.3806494140625003,-0.795146484375,-0.015978966540475426,0.01411475377741996,0.018375811521546742
0.860424,2.1243823242187503,1.4609619140625,9.187294921875,-0.009587379924285256,-0.0021305288720633903,0.006125270507182247,9.44356201171875,0.27542724609375,-1.37234619140625,-0.013315805450396189,-0.0010652644360316951,0.0053263221801584755,9.09867919921875,2.3638842773437503,-0.795146484375,-0.013582121559404112,0.01411475377741996,0.01970739206658636
0.866244,2.07169189453125,1.4609619140625,9.237590332031251,-0.00985369603329318,-0.0031957933080950856,0.007456851052221866,9.3932666015625,0.30895751953125,-1.3268408203125002,-0.01411475377741996,-0.0018642127630554665,0.004793689962142628,9.1825048828125,2.39262451171875,-0.8095166015625,-0.011451592687340723,0.016511598758491276,0.02024002428460221
0.872064,2.059716796875,1.44898681640625,9.170529785156251,-0.007190534943213942,0.0007989483270237714,0.006391586616190171,9.49146240234375,0.24189697265625001,-1.29570556640625,-0.006924218834206019,-0.0005326322180158476,0.0015978966540475428,9.201665039062501,2.31598388671875,-0.79275146484375,-0.014647385995435807,0.015180018213451656,0.0111852765783328
0.877872,2.07169189453125,1.4418017578125,9.177714843750001,-0.0055926382891664,-0.0018642127630554665,0.006125270507182247,9.45793212890625,0.21315673828125,-1.28133544921875,-0.002396844981071314,-0.0034621094171030094,0.0005326322180158476,9.156159667968751,2.23934326171875,-0.8214916992187501,-0.006125270507182247,0.02370213370170522,0.012783173232380343
0.88368,2.0357666015625,1.44419677734375,9.14657958984375,-0.007989483270237713,-0.0007989483270237714,0.005858954398174323,9.40045166015625,0.17483642578125,-1.3747412109375001,0.0026631610900792377,-0.0026631610900792377,-0.0005326322180158476,9.022038574218751,2.2872436523437503,-0.81670166015625,0.0021305288720633903,0.031425300862935004,0.0268979270098003
0.889504,2.05253173828125,1.4418017578125,9.081914062500001,-0.003728425526110933,-0.0015978966540475428,0.004793689962142628,9.378896484375,0.13412109375,-1.350791015625,0.006924218834206019,-0.0026631610900792377,-0.0015978966540475428,9.14657958984375,2.2872436523437503,-0.8047265625000001,0.012516857123372417,0.02822950755483992,0.018375811521546742
0.895316,2.07648193359375,1.40108642578125,9.1585546875,-0.0021305288720633903,0.0,0.0029294771990871615,9.474697265625,0.20357666015625,-1.3962963867187501,0.015446334322459579,-0.0010652644360316951,-0.0013315805450396189,9.16573974609375,2.2106030273437502,-0.737666015625,0.024234765919721065,0.02822950755483992,0.008788431597261484
0.901144,2.0070263671875,1.50167724609375,9.12262939453125,-0.002396844981071314,0.0013315805450396189,0.003728425526110933,9.4794873046875,0.27063720703125,-1.34360595703125,0.025033714246744835,-0.0007989483270237714,-0.0029294771990871615,9.13220947265625,2.2082080078125,-0.6753955078125,0.03462109417103009,0.033289513625990474,0.00985369603329318
0.90696,2.069296875,1.48251708984375,9.24238037109375,-0.0026631610900792377,-0.0007989483270237714,0.002396844981071314,9.388476562500001,0.3400927734375,-1.3172607421875,0.02316950148368937,-0.0031957933080950856,-0.0007989483270237714,9.120234375,2.4069946289062503,-0.7448510742187501,0.038349519697141024,0.025566346464760685,0.011717908796348646
0.912784,1.9519409179687501,1.41066650390625,9.19927001953125,-0.0013315805450396189,-0.0026631610900792377,0.0026631610900792377,9.40045166015625,0.335302734375,-1.32205078125,0.0223705531566656,-0.0077231671612297895,-0.0021305288720633903,9.074729003906251,2.42615478515625,-0.76880126953125,0.030892668644919158,0.01810949541253882,0.009587379924285256
0.918608,2.07648193359375,1.4034814453125,9.134604492187501,0.0002663161090079238,-0.0007989483270237714,0.0053263221801584755,9.43877197265625,0.33769775390625,-1.30049560546875,0.020506340393610132,-0.0066579027251980945,-0.002396844981071314,9.10825927734375,2.3902294921875002,-0.79754150390625,0.03941478413317272,0.033289513625990474,0.017843179303530892
0.92442,2.02379150390625,1.4609619140625,9.244775390625,-0.0002663161090079238,-0.0021305288720633903,0.0005326322180158476,9.474697265625,0.32811767578125,-1.33402587890625,0.0223705531566656,-0.0077231671612297895,-0.006125270507182247,9.129814453125,2.42136474609375,-0.718505859375,0.04394215798630743,0.027430559227816148,0.013049489341388266
0.930232,2.06690185546875,1.4418017578125,9.297465820312501,0.0002663161090079238,-0.0018642127630554665,0.0029294771990871615,9.41482177734375,0.18920654296875,-1.312470703125,0.022636869265673522,-0.00905474770626941,-0.0042610577441267805,9.12262939453125,2.38783447265625,-0.75922119140625,0.0447411063133312,0.02476739813773691,0.016245282649483352
0.936048,2.03337158203125,1.4226416015625,9.23280029296875,0.0034621094171030094,-0.0010652644360316951,0.004793689962142628,9.4986474609375,0.277822265625,-1.37713623046875,0.027430559227816148,-0.004527373853134705,-0.003994741635118856,9.0867041015625,2.47166015625,-0.6562353515625,0.03621899082507764,0.019174759848570512,0.011451592687340723
0.94186,2.0166064453125,1.4801220703125,9.261540527343751,0.0026631610900792377,0.0005326322180158476,0.0042610577441267805,9.53936279296875,0.24908203125,-1.2765454101562501,0.030093720317895388,-0.0111852765783328,-0.0013315805450396189,9.11304931640625,2.2752685546875,-0.6945556640625,0.03968110024218064,0.02609897868277653,0.02370213370170522
0.947668,2.0836669921875,1.4082714843750002,9.177714843750001,0.0031957933080950856,0.0015978966540475428,0.0002663161090079238,9.41961181640625,0.30895751953125,-1.34360595703125,0.027696875336824075,-0.005858954398174323,-0.0013315805450396189,9.2495654296875,2.43094482421875,-0.89813232421875,0.013315805450396189,0.02902845588186369,0.017044230976507122
0.953484,2.0309765625000002,1.46335693359375,9.22801025390625,0.0013315805450396189,0.0005326322180158476,0.0010652644360316951,9.40524169921875,0.30895751953125,-1.34360595703125,0.0268979270098003,-0.007456851052221866,-0.0029294771990871615,9.16573974609375,2.55548583984375,-0.8957373046875,0.012783173232380343,0.03595267471606971,0.022636869265673522
0.959296,2.05732177734375,1.4250366210937502,9.10107421875,0.0018642127630554665,0.0021305288720633903,0.0,9.3932666015625,0.22273681640625,-1.2549902343750001,0.0335558297349984,-0.010918960469324876,-0.002396844981071314,9.04598876953125,2.50279541015625,-0.775986328125,0.00985369603329318,0.03968110024218064,0.03222424918995878
0.965112,2.04295166015625,1.4346166992187501,9.22801025390625,0.006391586616190171,0.005060006071150552,0.0026631610900792377,9.395661621093751,0.27303222656250004,-1.33402587890625,0.03462109417103009,-0.008788431597261484,-0.0053263221801584755,9.091494140625,2.4908203125,-0.7256909179687501,0.019441075957578435,0.02024002428460221,0.01890844373956259
0.97092,2.0261865234375,1.4729370117187501,9.187294921875,0.003994741635118856,0.0010652644360316951,0.002396844981071314,9.3836865234375,0.32572265625,-1.3460009765625,0.03515372638904594,-0.009587379924285256,-0.0026631610900792377,9.04119873046875,2.557880859375,-0.718505859375,0.022903185374681445,0.04074636467821234,0.029294771990871615
0.976736,2.00942138671875,1.51365234375,9.1585546875,0.003728425526110933,0.0015978966540475428,0.0002663161090079238,9.395661621093751,0.34248779296875004,-1.302890625,0.030093720317895388,-0.0053263221801584755,0.0015978966540475428,9.014853515625001,2.4836352539062503,-0.79275146484375,0.022104237047657675,0.03595267471606971,0.03621899082507764
0.982544,2.02379150390625,1.43940673828125,9.19927001953125,0.0002663161090079238,0.0002663161090079238,0.0026631610900792377,9.35255126953125,0.40236328125000004,-1.32444580078125,0.027963191445831998,-0.010386328251309028,0.0005326322180158476,8.96455810546875,2.5339306640625003,-0.79754150390625,0.030093720317895388,0.021305288720633902,0.028495823663847845
0.98836,2.0357666015625,1.4250366210937502,9.2495654296875,0.0018642127630554665,-0.0002663161090079238,0.0007989483270237714,9.44356201171875,0.44068359375000005,-1.32444580078125,0.029294771990871615,-0.013049489341388266,0.0013315805450396189,9.16573974609375,2.4932153320312502,-0.7903564453125,0.03728425526110933,0.02103897261162598,0.021305288720633902
0.994184,2.07169189453125,1.4705419921875,9.2208251953125,0.0042610577441267805,0.003994741635118856,0.0021305288720633903,9.45314208984375,0.49097900390625004,-1.32444580078125,0.02476739813773691,-0.010386328251309028,0.0077231671612297895,9.091494140625,2.5914111328125,-0.79754150390625,0.038349519697141024,0.02476739813773691,0.02316950148368937
0.999988,1.9878662109375,1.4418017578125,9.1441845703125,-0.0021305288720633903,0.003728425526110933,0.0010652644360316951,9.40524169921875,0.536484375,-1.33881591796875,0.022636869265673522,-0.008522115488253561,0.010386328251309028,8.97892822265625,2.6009912109375,-0.7616162109375001,0.04287689355027573,0.022104237047657675,0.028495823663847845
1.0058,2.0309765625000002,1.504072265625,9.163344726562501,0.0005326322180158476,-0.0002663161090079238,0.0026631610900792377,9.48188232421875,0.49097900390625004,-1.31965576171875,0.016245282649483352,-0.008255799379245638,0.015712650431467502,8.98850830078125,2.7399023437500003,-0.7616162109375001,0.034088461953014244,0.0268979270098003,0.031425300862935004
1.011616,2.0213964843750003,1.4897021484375002,9.196875,-0.0007989483270237714,0.0007989483270237714,0.006924218834206019,9.410031738281251,0.45984375,-1.31965576171875,0.010918960469324876,-0.015180018213451656,0.015978966540475426,8.98850830078125,2.69918701171875,-0.7664062500000001,0.02343581759269729,0.026365294791784455,0.03115898475392708
1.017428,2.0645068359375003,1.4465917968750002,9.170529785156251,-0.0015978966540475428,-0.0007989483270237714,0.005060006071150552,9.3932666015625,0.47181884765625004,-1.3460009765625,0.00985369603329318,-0.011717908796348646,0.02103897261162598,9.022038574218751,2.70876708984375,-0.74964111328125,0.014381069886427884,0.019441075957578435,0.041012680787220264
1.02324,2.08606201171875,1.4561718750000001,9.237590332031251,-0.0010652644360316951,-0.0018642127630554665,0.005060006071150552,9.426796875,0.5077441406250001,-1.2933105468750001,0.0026631610900792377,-0.013582121559404112,0.024234765919721065,9.110654296875001,2.6896069335937502,-0.74006103515625,0.0077231671612297895,0.002396844981071314,0.03542004249805386
1.02906,2.0046313476562503,1.4801220703125,9.2112451171875,-0.0053263221801584755,-0.0031957933080950856,0.003994741635118856,9.462722167968751,0.48139892578125004,-1.4226416015625,-0.0026631610900792377,-0.009587379924285256,0.0268979270098003,9.1825048828125,2.6704467773437504,-0.7616162109375001,-0.009321063815277333,0.011451592687340723,0.028495823663847845
1.03488,2.0549267578125,1.53520751953125,9.07951904296875,-0.005858954398174323,-0.0031957933080950856,0.0034621094171030094,9.4603271484375,0.41194335937500004,-1.32444580078125,-0.005060006071150552,-0.010386328251309028,0.02956108809987954,9.1441845703125,2.682421875,-0.8071215820312501,-0.03036003642690331,0.006125270507182247,0.029294771990871615
1.040696,2.069296875,1.49209716796875,9.16573974609375,-0.006125270507182247,-0.003994741635118856,0.006125270507182247,9.40524169921875,0.41912841796875,-1.32444580078125,-0.007989483270237713,-0.010120012142301104,0.03462109417103009,8.916657714843751,2.62733642578125,-0.85502197265625,-0.03515372638904594,0.0005326322180158476,0.040213732460196494
1.046504,2.1076171875000003,1.46335693359375,9.2112451171875,-0.005060006071150552,-0.0026631610900792377,0.004793689962142628,9.426796875,0.37601806640625,-1.2981005859375,-0.011451592687340723,-0.011984224905356571,0.03701793915210141,9.01245849609375,2.5171655273437503,-0.8286767578125,-0.04048004856920442,0.0034621094171030094,0.043409525768291574
1.052328,2.0381616210937503,1.44898681640625,9.196875,-0.0013315805450396189,-0.0013315805450396189,0.004793689962142628,9.493857421875001,0.3448828125,-1.3268408203125002,-0.010120012142301104,-0.014647385995435807,0.036751623043093484,9.09388916015625,2.5914111328125,-0.8047265625000001,-0.05885586009075116,0.009587379924285256,0.052464273474560986
1.05814,2.0740869140625002,1.4513818359375001,9.1250244140625,-0.0034621094171030094,0.0002663161090079238,0.004527373853134705,9.42919189453125,0.3400927734375,-1.4082714843750002,-0.008522115488253561,-0.015978966540475426,0.03701793915210141,9.036408691406251,2.54111572265625,-0.75922119140625,-0.05459480234662437,-0.0026631610900792377,0.04660531907638666
1.063968,2.08845703125,1.47533203125,9.1825048828125,-0.0013315805450396189,-0.0021305288720633903,0.0031957933080950856,9.357341308593751,0.45026367187500005,-1.3268408203125002,-0.00985369603329318,-0.013848437668412037,0.038349519697141024,9.08430908203125,2.557880859375,-0.7640112304687501,-0.057524279545711536,0.0077231671612297895,0.054861118455632296
1.069788,1.99265625,1.45377685546875,9.201665039062501,0.0002663161090079238,-0.003728425526110933,0.006125270507182247,9.4124267578125,0.4358935546875,-1.26217529296875,-0.013315805450396189,-0.013315805450396189,0.03994741635118857,9.0867041015625,2.57943603515625,-0.7903564453125,-0.056725331218687766,-0.0018642127630554665,0.05619269900067192
1.075608,2.05253173828125,1.4729370117187501,9.11304931640625,-0.003728425526110933,-0.002396844981071314,0.005858954398174323,9.44356201171875,0.52929931640625,-1.3460009765625,-0.01757686319452297,-0.014647385995435807,0.04287689355027573,9.07951904296875,2.529140625,-0.7879614257812501,-0.05299690569257683,0.004793689962142628,0.05992112452678285
1.081432,2.00942138671875,1.48251708984375,9.187294921875,-0.0029294771990871615,-0.0029294771990871615,0.007190534943213942,9.436376953125,0.41912841796875,-1.3364208984375001,-0.026631610900792378,-0.01411475377741996,0.045273738531347044,9.06035888671875,2.62494140625,-0.7232958984375001,-0.05912217619975908,0.010120012142301104,0.0660463950339651
1.087244,2.11480224609375,1.4418017578125,9.244775390625,-0.0013315805450396189,-0.0034621094171030094,0.0034621094171030094,9.426796875,0.38559814453125,-1.40587646484375,-0.02822950755483992,-0.017843179303530892,0.04767058351241836,9.02443359375,2.60817626953125,-0.7232958984375001,-0.07084008499610772,0.010652644360316951,0.07110640110511565
1.093052,2.00942138671875,1.4849121093750002,9.18489990234375,0.0013315805450396189,-0.0010652644360316951,0.002396844981071314,9.42440185546875,0.35685791015625,-1.3915063476562501,-0.030626352535911235,-0.01890844373956259,0.04687163518539458,9.043593750000001,2.54590576171875,-0.8478369140625001,-0.08362325822848807,0.00905474770626941,0.06897587223305227
1.098868,2.0166064453125,1.5711328125000001,9.1537646484375,-0.0055926382891664,-0.005858954398174323,0.0053263221801584755,9.455537109375001,0.3448828125,-1.3483959960937502,-0.036751623043093484,-0.019174759848570512,0.050600060711505516,9.06035888671875,2.5435107421875003,-0.8861572265625001,-0.0894822126266624,0.0010652644360316951,0.06950850445106811
1.10468,2.10522216796875,1.4082714843750002,9.2351953125,-0.003994741635118856,-0.0042610577441267805,0.0066579027251980945,9.43877197265625,0.34248779296875004,-1.43701171875,-0.04154531300523611,-0.013848437668412037,0.04953479627547382,9.1729248046875,2.5051904296875,-0.7903564453125,-0.09614011535186048,0.003728425526110933,0.06791060779702056
1.110488,2.0812719726562503,1.4346166992187501,9.208850097656251,-0.0029294771990871615,-0.0015978966540475428,0.007456851052221866,9.398056640625,0.32572265625,-1.4082714843750002,-0.0447411063133312,-0.01810949541253882,0.04713795129440251,9.18010986328125,2.4093896484375,-0.8071215820312501,-0.09693906367888426,0.0031957933080950856,0.06791060779702056
1.116312,2.0213964843750003,1.4705419921875,9.043593750000001,-0.0010652644360316951,-0.0010652644360316951,0.006391586616190171,9.48188232421875,0.27542724609375,-1.4130615234375001,-0.04314320965928365,-0.017044230976507122,0.0492684801664659,9.216035156250001,2.3519091796875,-0.81191162109375,-0.09880327644193973,-0.0077231671612297895,0.059388492308767006
1.12212,2.02858154296875,1.4681469726562502,9.163344726562501,-0.0029294771990871615,0.0013315805450396189,0.0031957933080950856,9.46751220703125,0.14609619140625002,-1.3962963867187501,-0.04314320965928365,-0.02024002428460221,0.05033374460249759,9.2495654296875,2.3135888671875002,-0.79754150390625,-0.10173275364102688,-0.011451592687340723,0.05858954398174323
1.127928,2.10043212890625,1.45377685546875,9.177714843750001,-0.003728425526110933,-0.0018642127630554665,0.006924218834206019,9.474697265625,0.18441650390625,-1.40587646484375,-0.04127899689622819,-0.016511598758491276,0.05193164125654514,9.1729248046875,2.2944287109375003,-0.7520361328125,-0.10279801807705859,-0.011984224905356571,0.06205165339884624
1.133744,2.0932470703125,1.4561718750000001,9.148974609375001,-0.003994741635118856,0.0013315805450396189,0.006391586616190171,9.40045166015625,0.20597167968750002,-1.312470703125,-0.046072686858370814,-0.021305288720633902,0.05139900903852929,9.1920849609375,2.2872436523437503,-0.73048095703125,-0.08468852266451976,-0.005858954398174323,0.06498113059793341
1.13956,2.002236328125,1.4944921875000001,9.21364013671875,-0.0029294771990871615,-0.003728425526110933,0.006125270507182247,9.551337890625,0.16525634765625,-1.3747412109375001,-0.045273738531347044,-0.02103897261162598,0.0492684801664659,9.11304931640625,2.289638671875,-0.79754150390625,-0.07829693604832959,-0.007989483270237713,0.06924218834206018
1.145372,2.1411474609375003,1.4322216796875,9.18489990234375,-0.007190534943213942,0.0002663161090079238,0.0053263221801584755,9.49625244140625,0.143701171875,-1.32444580078125,-0.03595267471606971,-0.02103897261162598,0.04660531907638666,9.13699951171875,2.2082080078125,-0.7640112304687501,-0.07749798772130582,-0.0077231671612297895,0.07323692997717904
1.151188,2.0357666015625,1.46335693359375,9.268725585937501,-0.0053263221801584755,0.002396844981071314,0.0053263221801584755,9.40763671875,0.12214599609375,-1.274150390625,-0.03728425526110933,-0.022903185374681445,0.04127899689622819,9.09867919921875,2.23455322265625,-0.7664062500000001,-0.07829693604832959,-0.008522115488253561,0.07803061993932167
1.157012,2.09564208984375,1.4346166992187501,9.261540527343751,-0.0021305288720633903,-0.0015978966540475428,0.0055926382891664,9.455537109375001,0.16525634765625,-1.3651611328125002,-0.038349519697141024,-0.021837920938649752,0.04048004856920442,9.103469238281251,2.30161376953125,-0.8622070312500001,-0.07989483270237714,-0.009321063815277333,0.08309062601047222
1.162816,2.04295166015625,1.4897021484375002,9.194479980468751,-0.0002663161090079238,-0.0013315805450396189,0.0034621094171030094,9.441166992187501,0.11256591796875001,-1.32923583984375,-0.02822950755483992,-0.02476739813773691,0.0380832035881331,9.1441845703125,2.2776635742187503,-0.8622070312500001,-0.08255799379245637,-0.005858954398174323,0.08681905153658315
1.168624,2.1339624023437502,1.36755615234375,9.23280029296875,0.0002663161090079238,0.0010652644360316951,0.0010652644360316951,9.469907226562501,0.08861572265625,-1.33881591796875,-0.025566346464760685,-0.02370213370170522,0.03701793915210141,9.17531982421875,2.27287353515625,-0.9244775390625001,-0.09347695426178125,0.0026631610900792377,0.08894958040864655
1.17444,2.0836669921875,1.45856689453125,9.15136962890625,0.0002663161090079238,-0.0007989483270237714,0.0034621094171030094,9.436376953125,0.10538085937500001,-1.3364208984375001,-0.021837920938649752,-0.0223705531566656,0.03941478413317272,9.2112451171875,2.2704785156250002,-0.74006103515625,-0.09454221869781294,0.00985369603329318,0.09587379924285257
1.18026,2.0477416992187503,1.4418017578125,9.20406005859375,0.0010652644360316951,0.0031957933080950856,0.003728425526110933,9.4507470703125,0.18202148437500001,-1.4322216796875,-0.024234765919721065,-0.022636869265673522,0.03302319751698255,9.18010986328125,2.2177880859375003,-0.8478369140625001,-0.07909588437535336,0.008255799379245638,0.09933590865995558
1.186072,2.02858154296875,1.5232324218750002,9.16573974609375,-0.0002663161090079238,0.0002663161090079238,0.005858954398174323,9.43877197265625,0.28021728515625,-1.33881591796875,-0.027164243118808225,-0.022903185374681445,0.03302319751698255,9.16573974609375,2.22976318359375,-0.718505859375,-0.07350324608618697,-0.002396844981071314,0.10013485698697934
1.191892,2.05253173828125,1.4849121093750002,9.196875,-0.0005326322180158476,0.0015978966540475428,0.003728425526110933,9.4124267578125,0.28261230468750004,-1.3412109375,-0.03169161697194293,-0.02343581759269729,0.03222424918995878,9.2591455078125,2.31119384765625,-0.74964111328125,-0.08362325822848807,0.007190534943213942,0.09906959255094765
1.197716,2.10522216796875,1.50167724609375,9.129814453125,-0.0002663161090079238,0.0026631610900792377,0.005060006071150552,9.417216796875001,0.27303222656250004,-1.4513818359375001,-0.03595267471606971,-0.025566346464760685,0.03115898475392708,9.156159667968751,2.2776635742187503,-0.756826171875,-0.0806937810294009,0.005858954398174323,0.09560748313384464
1.203524,1.99984130859375,1.4465917968750002,9.2112451171875,0.0013315805450396189,0.0015978966540475428,0.003728425526110933,9.42440185546875,0.27542724609375,-1.3483959960937502,-0.033289513625990474,-0.027164243118808225,0.029294771990871615,9.1729248046875,2.4285498046875,-0.7137158203125,-0.0862864193185673,0.010652644360316951,0.0940095864797971
1.209348,2.0213964843750003,1.4849121093750002,9.196875,0.0007989483270237714,-0.0013315805450396189,0.003728425526110933,9.43877197265625,0.28261230468750004,-1.3843212890625,-0.034887410280038014,-0.027164243118808225,0.03515372638904594,9.0579638671875,2.34951416015625,-0.775986328125,-0.08708536764559108,-0.0010652644360316951,0.09321063815277332
1.215164,2.0549267578125,1.44419677734375,9.13220947265625,-0.0002663161090079238,0.0,0.0034621094171030094,9.378896484375,0.3305126953125,-1.32923583984375,-0.03302319751698255,-0.02583266257376861,0.03542004249805386,9.18010986328125,2.404599609375,-0.72090087890625,-0.083889574337496,0.0031957933080950856,0.09054747706269409
1.220972,2.0309765625000002,1.45377685546875,9.19927001953125,0.0002663161090079238,0.0005326322180158476,0.0055926382891664,9.4220068359375,0.3496728515625,-1.36037109375,-0.03115898475392708,-0.02822950755483992,0.034088461953014244,9.10825927734375,2.37825439453125,-0.6370751953125,-0.08202536157444053,0.003994741635118856,0.09028116095368616
1.226808,1.97589111328125,1.40587646484375,9.187294921875,0.0,0.0018642127630554665,0.0053263221801584755,9.43877197265625,0.37362304687500003,-1.3460009765625,-0.03701793915210141,-0.028495823663847845,0.04074636467821234,9.081914062500001,2.46926513671875,-0.60114990234375,-0.07084008499610772,0.0026631610900792377,0.08681905153658315
1.232616,2.01900146484375,1.4609619140625,9.134604492187501,-0.0005326322180158476,-0.0013315805450396189,0.005858954398174323,9.433981933593751,0.43828857421875,-1.41066650390625,-0.039148468024164794,-0.030093720317895388,0.04234426133225988,9.10107421875,2.49800537109375,-0.6370751953125,-0.06258428561686209,-0.003728425526110933,0.08468852266451976
1.238436,1.9519409179687501,1.4729370117187501,9.206455078125,-0.004527373853134705,0.0007989483270237714,0.003728425526110933,9.417216796875001,0.37601806640625,-1.3915063476562501,-0.043675841877299504,-0.03302319751698255,0.04420847409531535,9.1920849609375,2.46447509765625,-0.661025390625,-0.06205165339884624,-0.008255799379245638,0.07483482663122658
1.244248,2.040556640625,1.3939013671875,9.1250244140625,-0.0005326322180158476,-0.0018642127630554665,0.004793689962142628,9.37171142578125,0.3879931640625,-1.31965576171875,-0.04767058351241836,-0.035686358607061784,0.043675841877299504,9.00287841796875,2.46926513671875,-0.622705078125,-0.05725796343670361,-0.015712650431467502,0.07829693604832959
1.250056,2.03337158203125,1.45856689453125,9.21364013671875,0.0,-0.002396844981071314,0.004527373853134705,9.417216796875001,0.3496728515625,-1.36276611328125,-0.047936899621426284,-0.03462109417103009,0.04767058351241836,9.148974609375001,2.5435107421875003,-0.5867797851562501,-0.0761664071762662,-0.02103897261162598,0.07030745277809188
1.255868,2.0645068359375003,1.4992822265625,9.1585546875,-0.0013315805450396189,0.0015978966540475428,0.004527373853134705,9.381291503906251,0.335302734375,-1.32205078125,-0.05299690569257683,-0.04287689355027573,0.04873584794845005,9.1441845703125,2.4668701171875003,-0.72090087890625,-0.08042746492039299,-0.003994741635118856,0.07776430383031374
1.261684,2.0549267578125,1.47772705078125,9.141789550781251,-0.0042610577441267805,0.0,0.0031957933080950856,9.34776123046875,0.32811767578125,-1.32205078125,-0.05273058958356891,-0.04846953183944213,0.05273058958356891,9.03161865234375,2.3327490234375,-0.62989013671875,-0.07829693604832959,-0.0111852765783328,0.07403587830420282
1.267496,2.01900146484375,1.48730712890625,9.09388916015625,-0.006924218834206019,-0.002396844981071314,0.0042610577441267805,9.37650146484375,0.3305126953125,-1.3867163085937502,-0.04633900296737874,-0.04767058351241836,0.054062170128608526,9.053173828125,2.26808349609375,-0.6682104492187501,-0.0985369603329318,-0.019973708175594285,0.07749798772130582
1.273304,2.12917236328125,1.42024658203125,9.2208251953125,-0.003994741635118856,0.0026631610900792377,0.003728425526110933,9.402846679687501,0.2442919921875,-1.3699511718750002,-0.04633900296737874,-0.04687163518539458,0.05779059565471946,9.0052734375,2.31598388671875,-0.6825805664062501,-0.09614011535186048,-0.019174759848570512,0.0817590454654326
1.279112,1.9782861328125,1.5471826171875,9.194479980468751,-0.004527373853134705,-0.0007989483270237714,0.0055926382891664,9.4507470703125,0.17962646484375,-1.427431640625,-0.045273738531347044,-0.0447411063133312,0.057524279545711536,9.11304931640625,2.20341796875,-0.7424560546875001,-0.09773801200590802,-0.01810949541253882,0.0862864193185673
1.284924,2.00942138671875,1.427431640625,9.096284179687501,-0.00985369603329318,-0.0018642127630554665,0.005858954398174323,9.436376953125,0.1676513671875,-1.30528564453125,-0.04394215798630743,-0.04713795129440251,0.058323227872735306,9.043593750000001,2.12677734375,-0.7448510742187501,-0.07297061386817112,-0.021837920938649752,0.09001484484467824
1.290724,2.02379150390625,1.4609619140625,9.141789550781251,-0.009321063815277333,-0.0055926382891664,0.005858954398174323,9.436376953125,0.162861328125,-1.37953125,-0.03941478413317272,-0.05219795736555306,0.05779059565471946,9.17531982421875,2.17707275390625,-0.67060546875,-0.08042746492039299,-0.03435477806202217,0.08868326429963862
1.29654,2.0166064453125,1.4705419921875,9.110654296875001,-0.010652644360316951,-0.0021305288720633903,0.007989483270237713,9.45793212890625,0.277822265625,-1.38192626953125,-0.031425300862935004,-0.05459480234662437,0.055926382891663996,9.328601074218751,2.17707275390625,-0.689765625,-0.0806937810294009,-0.0223705531566656,0.08149272935642468
1.302364,1.97110107421875,1.4801220703125,9.225615234375,-0.007989483270237713,-0.0018642127630554665,0.0077231671612297895,9.455537109375001,0.15328125,-1.41545654296875,-0.0268979270098003,-0.061785337289838316,0.05219795736555306,9.18489990234375,2.212998046875,-0.737666015625,-0.07669903939428205,-0.03115898475392708,0.0806937810294009
1.308176,2.07648193359375,1.4130615234375001,9.156159667968751,-0.005060006071150552,-0.0007989483270237714,0.007190534943213942,9.402846679687501,0.20836669921875,-1.3915063476562501,-0.030093720317895388,-0.06444849837991756,0.05219795736555306,9.22801025390625,2.26808349609375,-0.61072998046875,-0.06258428561686209,-0.029827404208887465,0.07430219441321073
1.313992,2.07648193359375,1.53520751953125,9.13220947265625,-0.007456851052221866,-0.0053263221801584755,0.0055926382891664,9.48667236328125,0.1389111328125,-1.41545654296875,-0.027963191445831998,-0.06338323394388586,0.054062170128608526,9.225615234375,2.33993408203125,-0.6658154296875001,-0.06817692390602849,-0.026365294791784455,0.08016114881138506
1.319808,2.00942138671875,1.3915063476562501,9.223220214843751,-0.004527373853134705,-0.0021305288720633903,0.010120012142301104,9.48427734375,0.21315673828125,-1.2789404296875,-0.027696875336824075,-0.0671116594699968,0.05699164732769569,9.15136962890625,2.41178466796875,-0.5987548828125,-0.06364955005289379,-0.021837920938649752,0.09054747706269409
1.325608,2.08845703125,1.4250366210937502,9.15136962890625,-0.003994741635118856,-0.004527373853134705,0.0053263221801584755,9.5034375,0.22273681640625,-1.3460009765625,-0.03169161697194293,-0.06817692390602849,0.05619269900067192,9.09867919921875,2.38783447265625,-0.6466552734375001,-0.06471481448892548,-0.03542004249805386,0.09454221869781294
1.331416,2.0142114257812502,1.43940673828125,9.18010986328125,-0.0042610577441267805,-0.0015978966540475428,0.005060006071150552,9.43877197265625,0.15088623046875002,-1.3460009765625,-0.030626352535911235,-0.06258428561686209,0.054861118455632296,9.1729248046875,2.3998095703125,-0.61072998046875,-0.057524279545711536,-0.043409525768291574,0.0940095864797971
1.337236,2.040556640625,1.45856689453125,9.177714843750001,-0.0029294771990871615,-0.0026631610900792377,0.006125270507182247,9.4890673828125,0.21555175781250002,-1.3148657226562501,-0.03382214584400632,-0.06285060172587001,0.05352953791059268,9.275910644531251,2.39262451171875,-0.7640112304687501,-0.06205165339884624,-0.04633900296737874,0.08761799986360692
1.343044,2.0142114257812502,1.45377685546875,9.13699951171875,-0.006391586616190171,-0.0042610577441267805,0.006125270507182247,9.455537109375001,0.27063720703125,-1.45856689453125,-0.041012680787220264,-0.06657902725198095,0.054062170128608526,9.21364013671875,2.3734643554687502,-0.7616162109375001,-0.06205165339884624,-0.04740426740341044,0.08335694211948015
1.348852,2.0070263671875,1.5112573242187501,9.1920849609375,-0.0077231671612297895,-0.004793689962142628,0.0053263221801584755,9.455537109375001,0.23231689453125,-1.4178515625,-0.04234426133225988,-0.06737797557900471,0.052464273474560986,9.28070068359375,2.3423291015625,-0.6466552734375001,-0.06578007892495717,-0.03382214584400632,0.08681905153658315
1.354688,2.06690185546875,1.4250366210937502,9.18968994140625,-0.0034621094171030094,-0.0031957933080950856,0.0066579027251980945,9.4507470703125,0.15088623046875002,-1.32205078125,-0.05166532514753722,-0.06364955005289379,0.05432848623761645,9.177714843750001,2.42136474609375,-0.7879614257812501,-0.07776430383031374,-0.02476739813773691,0.08974852873567031
1.360508,2.0213964843750003,1.45856689453125,9.22801025390625,-0.0055926382891664,-0.004527373853134705,0.008788431597261484,9.48188232421875,0.27063720703125,-1.4513818359375001,-0.05539375067364815,-0.061785337289838316,0.055926382891663996,9.1920849609375,2.31119384765625,-0.7999365234375,-0.09507485091582879,-0.018642127630554665,0.0940095864797971
1.36632,2.0908520507812502,1.4609619140625,9.18010986328125,-0.0055926382891664,-0.006391586616190171,0.005858954398174323,9.513017578125,0.19160156250000002,-1.40108642578125,-0.0492684801664659,-0.05699164732769569,0.05779059565471946,9.170529785156251,2.3614892578125,-0.7328759765625,-0.12303804236166078,-0.0167779148674992,0.09880327644193973
1.372136,1.944755859375,1.41545654296875,9.2112451171875,-0.005060006071150552,-0.0053263221801584755,0.003994741635118856,9.39087158203125,0.143701171875,-1.4298266601562502,-0.05086637682051344,-0.05805691176372738,0.057524279545711536,9.06275390625,2.2608984375000003,-0.72090087890625,-0.13076120952289058,-0.02822950755483992,0.10466223084011404
1.377956,2.06211181640625,1.4705419921875,9.16573974609375,-0.003994741635118856,-0.005858954398174323,0.006924218834206019,9.455537109375001,0.1197509765625,-1.3915063476562501,-0.05033374460249759,-0.058323227872735306,0.05699164732769569,9.13939453125,2.3519091796875,-0.70892578125,-0.1278317323238034,-0.043675841877299504,0.11132013356531215
1.383768,2.040556640625,1.50167724609375,9.22801025390625,-0.0018642127630554665,-0.003994741635118856,0.0055926382891664,9.441166992187501,0.26345214843750003,-1.3939013671875,-0.05566006678265607,-0.05725796343670361,0.056725331218687766,9.11304931640625,2.27287353515625,-0.6634204101562501,-0.12703278399677964,-0.05352953791059268,0.11291803021935969
1.389588,2.0070263671875,1.4418017578125,9.12262939453125,-0.005060006071150552,-0.0042610577441267805,0.00985369603329318,9.433981933593751,0.335302734375,-1.37713623046875,-0.05566006678265607,-0.05432848623761645,0.05566006678265607,9.168134765625,2.3519091796875,-0.661025390625,-0.1267664678877717,-0.04820321573043421,0.11558119130943892
1.395404,2.0645068359375003,1.5471826171875,9.13699951171875,-0.0066579027251980945,-0.006125270507182247,0.009321063815277333,9.33339111328125,0.2347119140625,-1.4082714843750002,-0.06578007892495717,-0.059388492308767006,0.05619269900067192,9.14657958984375,2.2537133789062502,-0.7616162109375001,-0.12357067457967663,-0.0492684801664659,0.115314875200431
1.401228,2.0166064453125,1.4705419921875,9.1537646484375,-0.0055926382891664,-0.0013315805450396189,0.007456851052221866,9.417216796875001,0.2682421875,-1.5376025390625,-0.06791060779702056,-0.059388492308767006,0.057524279545711536,9.16573974609375,2.30640380859375,-0.81670166015625,-0.12516857123372419,-0.05352953791059268,0.11345066243737553
1.40706,1.95673095703125,1.44419677734375,9.08430908203125,-0.0029294771990871615,-0.0042610577441267805,0.0055926382891664,9.49625244140625,0.20597167968750002,-1.43940673828125,-0.07350324608618697,-0.06231796950785416,0.06338323394388586,9.168134765625,2.3734643554687502,-0.7711962890625,-0.12809804843281133,-0.04767058351241836,0.11371697854638346
1.412872,2.0309765625000002,1.4681469726562502,9.096284179687501,-0.005060006071150552,-0.0077231671612297895,0.005858954398174323,9.340576171875,0.19878662109375,-1.4226416015625,-0.06924218834206018,-0.06151902118083039,0.06258428561686209,9.120234375,2.4093896484375,-0.7448510742187501,-0.13928332501114413,-0.05113269292952137,0.1163801396364627
1.418684,2.05732177734375,1.4705419921875,9.1441845703125,-0.0055926382891664,-0.0053263221801584755,0.0077231671612297895,9.37650146484375,0.25626708984375,-1.41066650390625,-0.07217166554114735,-0.05965480841777493,0.0660463950339651,9.1585546875,2.462080078125,-0.81191162109375,-0.14860438882642146,-0.0492684801664659,0.11957593294455778
1.4245,1.9974462890625,1.40108642578125,9.230405273437501,-0.0010652644360316951,-0.005858954398174323,0.0077231671612297895,9.477092285156251,0.33290771484375004,-1.3962963867187501,-0.08202536157444053,-0.05858954398174323,0.06844324001503642,9.16573974609375,2.4860302734375,-0.75443115234375,-0.1624528264948335,-0.04980111238448175,0.12463593901570832
1.430312,2.117197265625,1.50167724609375,9.09867919921875,-0.0055926382891664,-0.0042610577441267805,0.008255799379245638,9.36213134765625,0.3448828125,-1.4250366210937502,-0.08921589651765446,-0.06364955005289379,0.06578007892495717,9.21843017578125,2.47884521484375,-0.8262817382812501,-0.18002968968935648,-0.04660531907638666,0.12170646181662118
1.436124,2.05732177734375,1.43940673828125,9.225615234375,-0.007456851052221866,-0.007190534943213942,0.009321063815277333,9.42440185546875,0.258662109375,-1.4801220703125,-0.09161274149872578,-0.05992112452678285,0.07297061386817112,9.13939453125,2.4237597656250003,-0.7616162109375001,-0.19334549513975266,-0.04820321573043421,0.12490225512471625
1.441928,1.9782861328125,1.4992822265625,9.091494140625,-0.007456851052221866,-0.012250541014364494,0.009321063815277333,9.513017578125,0.31853759765625,-1.4346166992187501,-0.1030643341860665,-0.060187440635790776,0.07350324608618697,9.18010986328125,2.404599609375,-0.8023315429687501,-0.20639498448114094,-0.04953479627547382,0.1275654162147955
1.447744,2.0357666015625,1.49209716796875,9.12741943359375,-0.008255799379245638,-0.008255799379245638,0.007190534943213942,9.398056640625,0.2442919921875,-1.41066650390625,-0.11451592687340723,-0.060187440635790776,0.07590009106725829,9.14657958984375,2.33514404296875,-0.86939208984375,-0.2159823644054262,-0.050600060711505516,0.12570120345174002
1.45356,1.9878662109375,1.40587646484375,9.14657958984375,-0.00985369603329318,-0.008255799379245638,0.006924218834206019,9.47230224609375,0.3065625,-1.48251708984375,-0.11558119130943892,-0.057524279545711536,0.07829693604832959,9.134604492187501,2.31598388671875,-0.76880126953125,-0.22423816378467182,-0.05459480234662437,0.12543488734273212
1.459376,2.03337158203125,1.42024658203125,9.14657958984375,-0.009587379924285256,-0.008522115488253561,0.005858954398174323,9.31902099609375,0.15088623046875002,-1.5328125000000001,-0.11824435239951817,-0.058323227872735306,0.0806937810294009,9.06993896484375,2.2273681640625003,-0.8813671875000001,-0.22343921545764805,-0.05699164732769569,0.12729910010578757
1.465192,1.9878662109375,1.5184423828125,9.13699951171875,-0.008788431597261484,-0.011451592687340723,0.008255799379245638,9.32381103515625,0.19399658203125,-1.5663427734375002,-0.11558119130943892,-0.06231796950785416,0.07882956826634543,9.072333984375,2.1411474609375003,-0.85023193359375,-0.2170476288414579,-0.05779059565471946,0.12942962897785096
1.471004,2.0309765625000002,1.43940673828125,9.168134765625,-0.009321063815277333,-0.007456851052221866,0.009321063815277333,9.37650146484375,0.229921875,-1.5280224609375002,-0.11238539800134384,-0.06125270507182247,0.07962851659336921,9.0100634765625,2.16509765625,-0.83107177734375,-0.21145499055229147,-0.06817692390602849,0.13369068672197773
1.47682,1.9854711914062502,1.38192626953125,9.22801025390625,-0.010918960469324876,-0.008788431597261484,0.009321063815277333,9.3932666015625,0.20836669921875,-1.55197265625,-0.11291803021935969,-0.05805691176372738,0.07776430383031374,9.06275390625,2.22497314453125,-0.89813232421875,-0.21305288720633903,-0.06870955612404434,0.13262542228594604
1.482636,2.0645068359375003,1.4609619140625,9.1729248046875,-0.011717908796348646,-0.011451592687340723,0.007989483270237713,9.37171142578125,0.13412109375,-1.53999755859375,-0.1086569724752329,-0.058323227872735306,0.07962851659336921,9.16573974609375,2.23455322265625,-0.8214916992187501,-0.2205097382585609,-0.06684534336098887,0.12916331286884303
1.488436,1.9950512695312501,1.4418017578125,9.19927001953125,-0.012250541014364494,-0.00985369603329318,0.010386328251309028,9.40763671875,0.15567626953125,-1.5280224609375002,-0.11398329465539138,-0.055127434564640226,0.07882956826634543,9.21364013671875,2.17228271484375,-0.8837622070312501,-0.22983080207383821,-0.06311691783487794,0.1320927900679302
1.494248,2.0070263671875,1.4298266601562502,9.20406005859375,-0.015446334322459579,-0.011717908796348646,0.011451592687340723,9.40524169921875,0.09340576171875001,-1.6310083007812501,-0.11744540407249439,-0.05566006678265607,0.07962851659336921,9.16094970703125,2.1698876953125,-0.96998291015625,-0.23142869872788577,-0.06072007285380662,0.13262542228594604
1.500064,2.0477416992187503,1.4609619140625,9.290280761718751,-0.013848437668412037,-0.010386328251309028,0.011717908796348646,9.398056640625,0.20597167968750002,-1.64058837890625,-0.11504855909142307,-0.05539375067364815,0.07909588437535336,9.196875,2.14833251953125,-0.9220825195312501,-0.2308960665098699,-0.058323227872735306,0.1331580545039619
1.50588,2.059716796875,1.4418017578125,9.148974609375001,-0.016511598758491276,-0.009321063815277333,0.008255799379245638,9.381291503906251,0.08382568359375,-1.5878979492187502,-0.11451592687340723,-0.05912217619975908,0.07829693604832959,9.208850097656251,2.1219873046875,-0.99872314453125,-0.23568975647201254,-0.055127434564640226,0.13448963504900152
1.511688,2.01900146484375,1.46335693359375,9.09867919921875,-0.016511598758491276,-0.006924218834206019,0.010918960469324876,9.34776123046875,0.10538085937500001,-1.57831787109375,-0.11851066850852608,-0.054861118455632296,0.07909588437535336,9.2399853515625,2.13875244140625,-0.9412426757812501,-0.24208134308820273,-0.04554005464035497,0.13528858337602528
1.517508,2.00942138671875,1.4298266601562502,9.24717041015625,-0.01757686319452297,-0.012783173232380343,0.011717908796348646,9.4124267578125,0.1772314453125,-1.4992822265625,-0.1209075134895974,-0.055127434564640226,0.08309062601047222,9.201665039062501,2.1076171875000003,-0.890947265625,-0.25246767133951176,-0.042610577441267804,0.13502226726701735
1.52334,2.02858154296875,1.40108642578125,9.11304931640625,-0.013315805450396189,-0.013049489341388266,0.010652644360316951,9.462722167968751,0.1676513671875,-1.4944921875000001,-0.12596751956074795,-0.05273058958356891,0.07882956826634543,9.1729248046875,2.14354248046875,-0.99872314453125,-0.2607234707187574,-0.038349519697141024,0.12942962897785096
1.529148,2.136357421875,1.4609619140625,9.06035888671875,-0.015180018213451656,-0.011717908796348646,0.008788431597261484,9.395661621093751,0.162861328125,-1.52083740234375,-0.12383699068868456,-0.05113269292952137,0.0772316716122979,9.16573974609375,2.0070263671875,-0.91250244140625,-0.26551716068090003,-0.04074636467821234,0.12836436454181926
1.53498,2.0836669921875,1.41066650390625,9.168134765625,-0.011984224905356571,-0.005858954398174323,0.009321063815277333,9.477092285156251,0.09101074218750001,-1.53041748046875,-0.12197277792562909,-0.04873584794845005,0.0806937810294009,9.129814453125,1.9687060546875002,-0.91250244140625,-0.26338663180883665,-0.03941478413317272,0.12543488734273212
1.540792,2.0381616210937503,1.3939013671875,9.1154443359375,-0.010652644360316951,-0.009321063815277333,0.006924218834206019,9.41961181640625,0.14609619140625002,-1.5926879882812501,-0.1275654162147955,-0.04207794522325196,0.08362325822848807,9.11304931640625,2.002236328125,-0.88855224609375,-0.25832662573768606,-0.039148468024164794,0.12570120345174002
1.5466,2.0645068359375003,1.4513818359375001,9.223220214843751,-0.011717908796348646,-0.009587379924285256,0.008788431597261484,9.40524169921875,0.09101074218750001,-1.6525634765625001,-0.1267664678877717,-0.04500742242233912,0.08309062601047222,9.074729003906251,2.04295166015625,-0.95561279296875,-0.2500708263584404,-0.04394215798630743,0.1267664678877717
1.552424,2.10043212890625,1.4609619140625,9.1729248046875,-0.00985369603329318,-0.0053263221801584755,0.0066579027251980945,9.378896484375,0.01676513671875,-1.5831079101562502,-0.12596751956074795,-0.04420847409531535,0.0817590454654326,9.0675439453125,2.00942138671875,-0.9148974609375,-0.23888554978010765,-0.047936899621426284,0.12623383566975588
1.55824,2.01181640625,1.427431640625,9.12262939453125,-0.008788431597261484,-0.004793689962142628,0.007989483270237713,9.4315869140625,0.0335302734375,-1.7004638671875,-0.12144014570761325,-0.03968110024218064,0.08522115488253561,9.1729248046875,1.9351757812500001,-0.9340576171875,-0.23462449203598085,-0.04740426740341044,0.12330435847066872
1.564048,2.0645068359375003,1.5112573242187501,9.17531982421875,-0.0111852765783328,-0.006125270507182247,0.006125270507182247,9.38608154296875,-0.00718505859375,-1.6717236328125,-0.11158644967432006,-0.03941478413317272,0.083889574337496,9.110654296875001,1.93757080078125,-1.07296875,-0.2295644859648303,-0.052464273474560986,0.12144014570761325
1.56988,1.9639160156250002,1.4944921875000001,9.134604492187501,-0.013582121559404112,-0.007456851052221866,0.011451592687340723,9.388476562500001,0.1197509765625,-1.65974853515625,-0.10705907582118536,-0.03302319751698255,0.08602010320955938,9.134604492187501,1.8657202148437502,-1.07296875,-0.21092235833427564,-0.050600060711505516,0.12117382959860531
1.575688,1.97110107421875,1.4801220703125,9.1729248046875,-0.015446334322459579,-0.009321063815277333,0.011984224905356571,9.335786132812501,0.05748046875,-1.7028588867187502,-0.10279801807705859,-0.02822950755483992,0.08548747099154354,9.19927001953125,1.9495458984375,-1.0753637695312501,-0.1970739206658636,-0.04873584794845005,0.12010856516257362
1.581496,2.0357666015625,1.4561718750000001,9.237590332031251,-0.0167779148674992,-0.009587379924285256,0.00905474770626941,9.3932666015625,0.0335302734375,-1.68369873046875,-0.10173275364102688,-0.03302319751698255,0.08415589044650391,9.15136962890625,1.88009033203125,-1.0011181640625,-0.18722022463257043,-0.04846953183944213,0.1198422490535657
1.587304,2.02858154296875,1.4801220703125,9.201665039062501,-0.016245282649483352,-0.007456851052221866,0.012250541014364494,9.417216796875001,0.0383203125,-1.6908837890625001,-0.10199906975003481,-0.027430559227816148,0.08229167768344844,9.18489990234375,1.9471508789062502,-1.01309326171875,-0.18002968968935648,-0.04554005464035497,0.11478224298241516
1.593112,2.069296875,1.45377685546875,9.09867919921875,-0.014647385995435807,-0.011451592687340723,0.012250541014364494,9.359736328125,0.0622705078125,-1.72201904296875,-0.10386328251309028,-0.025566346464760685,0.08309062601047222,9.223220214843751,1.99984130859375,-1.0394384765625,-0.1869539085235625,-0.04953479627547382,0.11611382352745477
1.59892,2.07169189453125,1.39869140625,9.29507080078125,-0.017843179303530892,-0.0077231671612297895,0.014381069886427884,9.417216796875001,0.028740234375,-1.72680908203125,-0.10466223084011404,-0.025033714246744835,0.08442220655551184,9.17531982421875,1.9950512695312501,-0.9675878906250001,-0.1914812823766972,-0.05006742849348967,0.11211908189233591
1.604736,2.1339624023437502,1.3915063476562501,9.24238037109375,-0.015446334322459579,-0.0066579027251980945,0.011984224905356571,9.52020263671875,0.0718505859375,-1.580712890625,-0.10466223084011404,-0.02316950148368937,0.08708536764559108,9.196875,1.983076171875,-0.9867480468750001,-0.19574234012082398,-0.0492684801664659,0.1131843463283676
1.61056,1.9639160156250002,1.4561718750000001,9.273515625,-0.014913702104443732,-0.009321063815277333,0.011717908796348646,9.49146240234375,0.1197509765625,-1.52083740234375,-0.11611382352745477,-0.021305288720633902,0.08495483877352769,9.244775390625,2.02379150390625,-0.98914306640625,-0.2016012945189983,-0.04740426740341044,0.1107875013472963
1.616376,2.10522216796875,1.5280224609375002,9.261540527343751,-0.010120012142301104,-0.0066579027251980945,0.010652644360316951,9.4794873046875,0.00239501953125,-1.59029296875,-0.11877698461753401,-0.02316950148368937,0.08575378710055145,9.194479980468751,2.04295166015625,-1.02746337890625,-0.21145499055229147,-0.046072686858370814,0.1107875013472963
1.622184,2.0070263671875,1.43701171875,9.15136962890625,-0.013049489341388266,-0.008788431597261484,0.011984224905356571,9.53936279296875,0.086220703125,-1.5543676757812501,-0.12144014570761325,-0.01890844373956259,0.08655273542757523,9.25675048828125,1.97589111328125,-0.9532177734375,-0.2125202549883232,-0.043675841877299504,0.11291803021935969
1.628,2.10522216796875,1.3939013671875,9.14657958984375,-0.00985369603329318,-0.011717908796348646,0.008255799379245638,9.48667236328125,-0.0718505859375,-1.69806884765625,-0.1275654162147955,-0.019441075957578435,0.083889574337496,9.3262060546875,1.9399658203125,-0.9532177734375,-0.22210763491260843,-0.043409525768291574,0.11771172018150232
1.633808,2.0261865234375,1.48251708984375,9.16094970703125,-0.013848437668412037,-0.007989483270237713,0.011451592687340723,9.398056640625,-0.086220703125,-1.5663427734375002,-0.12436962290670041,-0.022903185374681445,0.08362325822848807,9.30944091796875,1.88967041015625,-0.91250244140625,-0.23009711818284614,-0.043409525768291574,0.11691277185447854
1.639624,2.0812719726562503,1.46335693359375,9.129814453125,-0.013315805450396189,-0.004793689962142628,0.010918960469324876,9.314230957031251,-0.03113525390625,-1.5950830078125,-0.1198422490535657,-0.022104237047657675,0.08655273542757523,9.225615234375,1.88488037109375,-0.85981201171875,-0.2261023765477273,-0.042610577441267804,0.11265171411035176
1.645448,2.0261865234375,1.4298266601562502,9.13220947265625,-0.0167779148674992,-0.00905474770626941,0.012783173232380343,9.359736328125,-0.086220703125,-1.57352783203125,-0.12357067457967663,-0.01810949541253882,0.08868326429963862,9.17531982421875,1.91841064453125,-0.79754150390625,-0.21997710604054505,-0.04314320965928365,0.10679275971217744
1.651252,2.069296875,1.43701171875,9.16094970703125,-0.015180018213451656,-0.0055926382891664,0.011984224905356571,9.31902099609375,0.0622705078125,-1.59029296875,-0.12330435847066872,-0.01890844373956259,0.08708536764559108,9.103469238281251,1.8226098632812502,-0.7999365234375,-0.21544973218741034,-0.04420847409531535,0.10572749527614574
1.657064,2.0645068359375003,1.465751953125,9.16573974609375,-0.012516857123372417,-0.0066579027251980945,0.007989483270237713,9.30465087890625,-0.01676513671875,-1.5567626953125,-0.12383699068868456,-0.0167779148674992,0.08575378710055145,9.16573974609375,1.88967041015625,-0.8646020507812501,-0.21305288720633903,-0.04687163518539458,0.10599381138515367
1.66288,2.1315673828125,1.38192626953125,9.117839355468751,-0.008788431597261484,-0.0077231671612297895,0.010652644360316951,9.42919189453125,0.10298583984375001,-1.5711328125000001,-0.1286306806508272,-0.01890844373956259,0.08255799379245637,9.15136962890625,1.9112255859375,-0.93166259765625,-0.21544973218741034,-0.052464273474560986,0.1131843463283676
1.668696,2.07169189453125,1.465751953125,9.2399853515625,-0.00905474770626941,-0.006924218834206019,0.011984224905356571,9.426796875,-0.050295410156250005,-1.59029296875,-0.1296959450868589,-0.018642127630554665,0.08335694211948015,9.187294921875,1.9806811523437502,-0.9675878906250001,-0.21331920331534696,-0.05858954398174323,0.1163801396364627
1.674504,2.1124072265625,1.44898681640625,9.15136962890625,-0.00905474770626941,-0.004527373853134705,0.0111852765783328,9.48188232421875,-0.045505371093750004,-1.5711328125000001,-0.12543488734273212,-0.01757686319452297,0.08122641324741675,9.244775390625,2.06690185546875,-0.91729248046875,-0.21971078993153711,-0.060187440635790776,0.12223909403463702
1.680328,2.06690185546875,1.4729370117187501,9.273515625,-0.007456851052221866,-0.0031957933080950856,0.008522115488253561,9.378896484375,-0.01676513671875,-1.6693286132812502,-0.12144014570761325,-0.01970739206658636,0.08415589044650391,9.342971191406251,2.08845703125,-0.79275146484375,-0.21758026105947373,-0.05299690569257683,0.1209075134895974
1.68616,2.0166064453125,1.43701171875,9.21843017578125,-0.006391586616190171,-0.007190534943213942,0.010386328251309028,9.4986474609375,0.09101074218750001,-1.5663427734375002,-0.12064119738058947,-0.015712650431467502,0.08495483877352769,9.3118359375,2.12677734375,-0.8071215820312501,-0.22104237047657674,-0.04820321573043421,0.1198422490535657
1.691968,2.0836669921875,1.4729370117187501,9.18489990234375,-0.010120012142301104,-0.006391586616190171,0.0111852765783328,9.4315869140625,0.1149609375,-1.5567626953125,-0.12410330679769248,-0.017843179303530892,0.08761799986360692,9.35255126953125,2.0453466796875,-0.7041357421875001,-0.22663500876574313,-0.041811629114244034,0.11584750741844685
1.6978,2.02858154296875,1.389111328125,9.2112451171875,-0.009321063815277333,-0.013049489341388266,0.009587379924285256,9.4890673828125,0.08861572265625,-1.5711328125000001,-0.13156015784991434,-0.018375811521546742,0.08894958040864655,9.33818115234375,2.02379150390625,-0.7616162109375001,-0.24048344643415517,-0.03941478413317272,0.10998855302027252
1.703604,2.0836669921875,1.389111328125,9.187294921875,-0.006125270507182247,-0.0111852765783328,0.009587379924285256,9.43877197265625,-0.09101074218750001,-1.53041748046875,-0.1376854283570966,-0.01757686319452297,0.0884169481906307,9.342971191406251,1.9471508789062502,-0.8622070312500001,-0.2631203156998287,-0.034887410280038014,0.10120012142301103
1.709416,2.0836669921875,1.5112573242187501,9.22801025390625,-0.00905474770626941,-0.00985369603329318,0.0111852765783328,9.388476562500001,-0.11256591796875001,-1.59747802734375,-0.13528858337602528,-0.019441075957578435,0.08362325822848807,9.357341308593751,1.85853515625,-0.9412426757812501,-0.26738137344395546,-0.035686358607061784,0.10279801807705859
1.715236,2.01900146484375,1.4944921875000001,9.17531982421875,-0.0053263221801584755,-0.007989483270237713,0.011451592687340723,9.474697265625,-0.06466552734375,-1.68848876953125,-0.1331580545039619,-0.016245282649483352,0.08335694211948015,9.201665039062501,1.84177001953125,-0.9005273437500001,-0.26338663180883665,-0.036751623043093484,0.10333065029507443
1.721052,2.01181640625,1.4298266601562502,9.18489990234375,-0.006924218834206019,-0.010120012142301104,0.011717908796348646,9.42919189453125,-0.13412109375,-1.57831787109375,-0.12809804843281133,-0.014381069886427884,0.07989483270237714,9.18968994140625,1.7124389648437501,-0.8765771484375,-0.26365294791784455,-0.03515372638904594,0.09986854087797142
1.72686,2.11001220703125,1.45377685546875,9.1585546875,-0.007190534943213942,-0.009587379924285256,0.008522115488253561,9.37171142578125,-0.21555175781250002,-1.504072265625,-0.12596751956074795,-0.018642127630554665,0.07962851659336921,9.18968994140625,1.69327880859375,-0.8262817382812501,-0.2679140056619713,-0.03382214584400632,0.10040117309598727
1.732692,2.06690185546875,1.4681469726562502,9.120234375,-0.006924218834206019,-0.00905474770626941,0.010918960469324876,9.3836865234375,-0.30416748046875003,-1.6046630859375002,-0.12543488734273212,-0.01757686319452297,0.07749798772130582,9.21364013671875,1.67890869140625,-0.8478369140625001,-0.26365294791784455,-0.03542004249805386,0.10199906975003481
1.738504,2.11001220703125,1.35797607421875,9.141789550781251,-0.003994741635118856,-0.007456851052221866,0.006924218834206019,9.501042480468751,-0.18920654296875,-1.60226806640625,-0.11611382352745477,-0.011451592687340723,0.07563377495825035,9.268725585937501,1.6741186523437501,-0.8669970703125001,-0.251668723012488,-0.03462109417103009,0.10146643753201896
1.744312,2.06211181640625,1.37953125,9.072333984375,-0.004793689962142628,-0.0053263221801584755,0.007190534943213942,9.3645263671875,-0.15328125,-1.53520751953125,-0.11371697854638346,-0.017044230976507122,0.07483482663122658,9.2591455078125,1.67890869140625,-0.91729248046875,-0.2383529175620918,-0.03435477806202217,0.10253170196805066
1.750128,2.1339624023437502,1.427431640625,9.13699951171875,-0.007989483270237713,-0.006125270507182247,0.006924218834206019,9.4507470703125,-0.19399658203125,-1.65495849609375,-0.10146643753201896,-0.015180018213451656,0.07217166554114735,9.30465087890625,1.64058837890625,-0.910107421875,-0.22104237047657674,-0.03302319751698255,0.10040117309598727
1.755936,2.09564208984375,1.45856689453125,9.091494140625,-0.007190534943213942,-0.007456851052221866,0.010386328251309028,9.48188232421875,-0.18441650390625,-1.5950830078125,-0.09614011535186048,-0.014647385995435807,0.06817692390602849,9.25675048828125,1.57352783203125,-0.9005273437500001,-0.19840550121090322,-0.029294771990871615,0.0974716958969001
1.761736,2.0908520507812502,1.3483959960937502,9.208850097656251,-0.008522115488253561,-0.003728425526110933,0.009321063815277333,9.5034375,-0.08382568359375,-1.5543676757812501,-0.08974852873567031,-0.009321063815277333,0.06657902725198095,9.28070068359375,1.57352783203125,-0.9244775390625001,-0.17923074136233272,-0.02956108809987954,0.09241168982574956
1.767552,1.9591259765625002,1.32923583984375,9.16573974609375,-0.010652644360316951,-0.006125270507182247,0.008255799379245638,9.3453662109375,-0.11256591796875001,-1.64537841796875,-0.08442220655551184,-0.009587379924285256,0.06498113059793341,9.244775390625,1.5471826171875,-0.9148974609375,-0.15845808485971466,-0.0268979270098003,0.09161274149872578
1.773364,2.0812719726562503,1.4705419921875,9.0867041015625,-0.012250541014364494,-0.0055926382891664,0.009321063815277333,9.38608154296875,-0.21076171875000002,-1.6525634765625001,-0.07403587830420282,-0.011984224905356571,0.06444849837991756,9.170529785156251,1.6094531250000002,-0.852626953125,-0.14088122166519168,-0.02343581759269729,0.08921589651765446
1.779172,2.0836669921875,1.44419677734375,9.18489990234375,-0.010918960469324876,-0.004793689962142628,0.0077231671612297895,9.40045166015625,-0.162861328125,-1.53041748046875,-0.06125270507182247,-0.008255799379245638,0.06311691783487794,9.1537646484375,1.6525634765625001,-0.87418212890625,-0.12942962897785096,-0.023968449810713142,0.08761799986360692
1.784984,2.0070263671875,1.4561718750000001,9.2351953125,-0.011984224905356571,-0.005858954398174323,0.010652644360316951,9.41482177734375,-0.23231689453125,-1.676513671875,-0.05006742849348967,-0.006391586616190171,0.06444849837991756,9.156159667968751,1.64058837890625,-0.8646020507812501,-0.11877698461753401,-0.0268979270098003,0.08548747099154354
1.790812,2.09564208984375,1.3962963867187501,9.156159667968751,-0.010386328251309028,-0.004527373853134705,0.009587379924285256,9.378896484375,-0.1580712890625,-1.6693286132812502,-0.03542004249805386,0.0018642127630554665,0.06231796950785416,9.254355468750001,1.67890869140625,-0.83107177734375,-0.10466223084011404,-0.02343581759269729,0.08681905153658315
1.796628,1.99984130859375,1.4322216796875,9.24717041015625,-0.011717908796348646,-0.003728425526110933,0.007989483270237713,9.357341308593751,-0.19878662109375,-1.5471826171875,-0.026631610900792378,-0.005060006071150552,0.059388492308767006,9.13939453125,1.7004638671875,-0.814306640625,-0.09880327644193973,-0.021571604829641825,0.08442220655551184
1.802444,2.11480224609375,1.465751953125,9.089099121093751,-0.010120012142301104,-0.003728425526110933,0.010386328251309028,9.398056640625,-0.1580712890625,-1.5471826171875,-0.01411475377741996,-0.006391586616190171,0.05459480234662437,9.223220214843751,1.6813037109375002,-0.81670166015625,-0.09427590258880501,-0.02024002428460221,0.08202536157444053
1.80826,2.07648193359375,1.312470703125,9.156159667968751,-0.009321063815277333,-0.005858954398174323,0.007456851052221866,9.4794873046875,-0.17244140625,-1.55915771484375,-0.010386328251309028,-0.003728425526110933,0.0537958540196006,9.2783056640625,1.70525390625,-0.833466796875,-0.07376956219519488,-0.022636869265673522,0.07856325215733752
1.814068,2.0213964843750003,1.4418017578125,9.2112451171875,-0.008788431597261484,-0.0026631610900792377,0.008522115488253561,9.357341308593751,-0.1484912109375,-1.53999755859375,-0.0066579027251980945,-0.0053263221801584755,0.05033374460249759,9.36931640625,1.7004638671875,-0.8574169921875,-0.06870955612404434,-0.022104237047657675,0.07962851659336921
1.81988,2.05253173828125,1.36276611328125,9.2112451171875,-0.0077231671612297895,-0.0015978966540475428,0.0053263221801584755,9.3836865234375,-0.17004638671875,-1.55197265625,-0.0055926382891664,-0.006125270507182247,0.055127434564640226,9.237590332031251,1.70525390625,-0.996328125,-0.06977482056007603,-0.014381069886427884,0.07510114274023451
1.825696,2.1315673828125,1.542392578125,9.208850097656251,-0.007989483270237713,-0.0029294771990871615,0.0066579027251980945,9.4986474609375,-0.1580712890625,-1.5160473632812501,-0.007190534943213942,-0.0042610577441267805,0.055127434564640226,9.283095703125001,1.8010546875000002,-0.9029223632812501,-0.06924218834206018,-0.015978966540475426,0.07137271721412357
1.831496,2.11001220703125,1.42024658203125,9.1441845703125,-0.011451592687340723,-0.0026631610900792377,0.007456851052221866,9.4603271484375,-0.047900390625000004,-1.6310083007812501,-0.014913702104443732,-0.004527373853134705,0.0537958540196006,9.23280029296875,1.80823974609375,-0.8669970703125001,-0.07004113666908396,-0.013315805450396189,0.07084008499610772
1.837312,2.0836669921875,1.4346166992187501,9.244775390625,-0.009321063815277333,-0.0031957933080950856,0.010386328251309028,9.36692138671875,-0.03592529296875,-1.5376025390625,-0.01411475377741996,-0.0034621094171030094,0.05645901510967984,9.24238037109375,1.72680908203125,-0.8430468750000001,-0.06737797557900471,-0.011451592687340723,0.06498113059793341
1.843132,2.078876953125,1.4130615234375001,9.187294921875,-0.010386328251309028,-0.0034621094171030094,0.0055926382891664,9.417216796875001,-0.0143701171875,-1.53520751953125,-0.025033714246744835,-0.006125270507182247,0.056725331218687766,9.225615234375,1.7962646484375,-0.75443115234375,-0.06524744670694133,-0.008255799379245638,0.06151902118083039
1.848956,2.07169189453125,1.37713623046875,9.208850097656251,-0.006924218834206019,-0.0034621094171030094,0.0066579027251980945,9.42919189453125,-0.12214599609375,-1.5663427734375002,-0.027696875336824075,-0.0018642127630554665,0.05539375067364815,9.261540527343751,1.791474609375,-0.814306640625,-0.0761664071762662,-0.010120012142301104,0.059388492308767006
1.854768,2.08845703125,1.4298266601562502,9.11304931640625,-0.008788431597261484,-0.0018642127630554665,0.008522115488253561,9.42919189453125,-0.13172607421875002,-1.5855029296875,-0.023968449810713142,-0.0055926382891664,0.05193164125654514,9.230405273437501,1.70525390625,-0.81670166015625,-0.07323692997717904,-0.013582121559404112,0.05858954398174323
1.860584,2.069296875,1.5280224609375002,9.196875,-0.007456851052221866,-0.0055926382891664,0.0077231671612297895,9.410031738281251,-0.2682421875,-1.7100439453125,-0.022104237047657675,-0.0007989483270237714,0.04820321573043421,9.3070458984375,1.638193359375,-0.910107421875,-0.06364955005289379,-0.010386328251309028,0.05725796343670361
1.866396,2.10043212890625,1.465751953125,9.18489990234375,-0.002396844981071314,-0.0066579027251980945,0.008522115488253561,9.40524169921875,-0.25626708984375,-1.561552734375,-0.015180018213451656,-0.0005326322180158476,0.04980111238448175,9.29507080078125,1.6645385742187502,-0.9148974609375,-0.05193164125654514,-0.011984224905356571,0.05779059565471946
1.872208,2.09564208984375,1.3483959960937502,9.12741943359375,-0.0021305288720633903,-0.0029294771990871615,0.006924218834206019,9.40524169921875,-0.28740234375,-1.57831787109375,-0.00985369603329318,0.0005326322180158476,0.05166532514753722,9.33099609375,1.6142431640625001,-0.9196875,-0.043409525768291574,-0.0053263221801584755,0.05352953791059268
1.87804,2.06690185546875,1.41545654296875,9.20406005859375,-0.0026631610900792377,-0.005858954398174323,0.007190534943213942,9.4794873046875,-0.22513183593750002,-1.61184814453125,-0.0053263221801584755,0.0007989483270237714,0.04846953183944213,9.2783056640625,1.66693359375,-0.79754150390625,-0.03435477806202217,-0.004793689962142628,0.04900216405745798
1.88384,2.059716796875,1.45377685546875,9.110654296875001,-0.0013315805450396189,-0.0018642127630554665,0.006125270507182247,9.4220068359375,-0.17004638671875,-1.53520751953125,-0.007190534943213942,0.0021305288720633903,0.04740426740341044,9.321416015625001,1.638193359375,-0.8765771484375,-0.023968449810713142,-0.003728425526110933,0.047936899621426284
1.889652,2.05732177734375,1.3867163085937502,9.23280029296875,-0.0007989483270237714,-0.0042610577441267805,0.007989483270237713,9.43877197265625,-0.11735595703125,-1.55197265625,-0.0066579027251980945,0.0021305288720633903,0.04767058351241836,9.31902099609375,1.599873046875,-0.9196875,-0.018375811521546742,-0.0021305288720633903,0.045273738531347044
1.895484,2.0357666015625,1.4705419921875,9.09867919921875,-0.0021305288720633903,-0.0053263221801584755,0.007456851052221866,9.42919189453125,-0.12693603515625002,-1.60226806640625,-0.010120012142301104,-0.0005326322180158476,0.047936899621426284,9.28549072265625,1.68848876953125,-0.91250244140625,-0.013049489341388266,-0.0034621094171030094,0.04420847409531535
1.9013,2.0836669921875,1.32923583984375,9.263935546875,0.003728425526110933,-0.005858954398174323,0.0029294771990871615,9.37650146484375,-0.09340576171875001,-1.57831787109375,-0.00905474770626941,-0.0018642127630554665,0.04500742242233912,9.29267578125,1.7124389648437501,-0.8238867187500001,-0.009587379924285256,-0.0015978966540475428,0.04420847409531535
1.907108,2.0381616210937503,1.44419677734375,9.16094970703125,-0.005858954398174323,-0.004527373853134705,0.007989483270237713,9.448352050781251,-0.047900390625000004,-1.6046630859375002,-0.010652644360316951,0.0013315805450396189,0.04580637074936289,9.29986083984375,1.791474609375,-0.85981201171875,-0.004793689962142628,0.007190534943213942,0.04074636467821234
1.912928,2.0980371093750003,1.3939013671875,9.16573974609375,-0.005060006071150552,-0.0053263221801584755,0.007456851052221866,9.44595703125,0.00718505859375,-1.6142431640625001,-0.009321063815277333,-0.0002663161090079238,0.04900216405745798,9.29267578125,1.7292041015625002,-0.8478369140625001,-0.0013315805450396189,0.0034621094171030094,0.0380832035881331
1.91874,2.05732177734375,1.4681469726562502,9.244775390625,-0.002396844981071314,-0.007190534943213942,0.010120012142301104,9.522597656250001,-0.0814306640625,-1.62861328125,-0.013049489341388266,-0.0010652644360316951,0.05006742849348967,9.2495654296875,1.7579443359375,-0.7256909179687501,-0.0013315805450396189,0.0029294771990871615,0.027963191445831998
1.924552,2.10522216796875,1.49688720703125,9.16094970703125,-0.0021305288720633903,-0.010120012142301104,0.010386328251309028,9.48188232421875,-0.11017089843750001,-1.65016845703125,-0.011984224905356571,-0.002396844981071314,0.053263221801584756,9.28549072265625,1.69327880859375,-0.7664062500000001,0.007190534943213942,0.0026631610900792377,0.021571604829641825
1.930368,2.12917236328125,1.427431640625,9.30465087890625,-0.0002663161090079238,-0.008788431597261484,0.00985369603329318,9.57768310546875,-0.17962646484375,-1.62142822265625,-0.0010652644360316951,0.002396844981071314,0.04980111238448175,9.30465087890625,1.7292041015625002,-0.77359130859375,0.014647385995435807,-0.0055926382891664,0.015180018213451656
1.936176,2.0836669921875,1.4609619140625,9.13220947265625,0.003994741635118856,-0.008522115488253561,0.010386328251309028,9.57289306640625,-0.13412109375,-1.5280224609375002,-0.0021305288720633903,0.0029294771990871615,0.056725331218687766,9.3932666015625,1.7100439453125,-0.75443115234375,0.02476739813773691,-0.0029294771990871615,0.011984224905356571
1.941988,2.05253173828125,1.4801220703125,9.16573974609375,0.0015978966540475428,-0.008255799379245638,0.010120012142301104,9.536967773437501,-0.06466552734375,-1.59029296875,-0.0029294771990871615,0.0018642127630554665,0.04980111238448175,9.395661621093751,1.73159912109375,-0.6035449218750001,0.0335558297349984,-0.006391586616190171,0.004527373853134705
1.947804,2.0309765625000002,1.37234619140625,9.28070068359375,0.0077231671612297895,-0.011984224905356571,0.008522115488253561,9.48427734375,-0.1197509765625,-1.4561718750000001,-0.003994741635118856,-0.0007989483270237714,0.04767058351241836,9.32381103515625,1.67890869140625,-0.689765625,0.03941478413317272,-0.0053263221801584755,0.0010652644360316951
1.953628,2.1411474609375003,1.39869140625,9.3453662109375,0.010918960469324876,-0.0077231671612297895,0.0066579027251980945,9.39087158203125,-0.229921875,-1.3962963867187501,-0.010386328251309028,-0.0055926382891664,0.047936899621426284,9.31902099609375,1.6956738281250001,-0.63468017578125,0.05139900903852929,-0.007456851052221866,-0.0007989483270237714
1.959436,2.2273681640625003,1.3747412109375001,9.163344726562501,0.012516857123372417,-0.0053263221801584755,0.006125270507182247,9.474697265625,-0.2347119140625,-1.49688720703125,-0.010652644360316951,-0.008522115488253561,0.04580637074936289,9.314230957031251,1.65495849609375,-0.6466552734375001,0.06311691783487794,-0.011717908796348646,0.0007989483270237714
