Header,foot_Accel_X,foot_Accel_Y,foot_Accel_Z,foot_Gyro_X,foot_Gyro_Y,foot_Gyro_Z,shank_Accel_X,shank_Accel_Y,shank_Accel_Z,shank_Gyro_X,shank_Gyro_Y,shank_Gyro_Z,thigh_Accel_X,thigh_Accel_Y,thigh_Accel_Z,thigh_Gyro_X,thigh_Gyro_Y,thigh_Gyro_Z
0.005772,2.69439697265625,0.4358935546875,3.6907250976562502,-0.01411475377741996,0.004793689962142628,0.0015978966540475428,4.7181884765625,0.0,-0.4454736328125,-0.07323692997717904,-0.04420847409531535,0.12623383566975588,4.37091064453125,-1.65495849609375,0.32572265625,-0.0974716958969001,0.05779059565471946,0.13582121559404112
0.011584,2.70876708984375,0.42870849609375,3.6619848632812504,-0.00905474770626941,0.0055926382891664,-0.0077231671612297895,4.76369384765625,-0.0047900390625,-0.4358935546875,-0.08495483877352769,-0.042610577441267804,0.1265001517787638,4.3613305664062505,-1.6813037109375002,0.34248779296875004,-0.1030643341860665,0.05779059565471946,0.1376854283570966
0.017412,2.70397705078125,0.43110351562500004,3.650009765625,-0.009587379924285256,0.011984224905356571,-0.0013315805450396189,4.768483886718751,0.0047900390625,-0.44786865234375,-0.08122641324741675,-0.04900216405745798,0.12996226119586682,4.358935546875,-1.6693286132812502,0.3496728515625,-0.09986854087797142,0.05273058958356891,0.13821806057511243
0.02322,2.70397705078125,0.4167333984375,3.65958984375,-0.008255799379245638,0.0034621094171030094,0.0005326322180158476,4.71579345703125,-0.0143701171875,-0.44307861328125003,-0.07456851052221866,-0.04234426133225988,0.12996226119586682,4.3828857421875,-1.65016845703125,0.32332763671875003,-0.09614011535186048,0.05805691176372738,0.1331580545039619
0.029032,2.69918701171875,0.45744873046875,3.6907250976562502,-0.0111852765783328,0.004527373853134705,0.005858954398174323,4.7133984375,-0.0047900390625,-0.3975732421875,-0.07030745277809188,-0.04287689355027573,0.13821806057511243,4.34935546875,-1.6645385742187502,0.3448828125,-0.10572749527614574,0.05459480234662437,0.13582121559404112
0.034856,2.6680517578125,0.49097900390625004,3.6715649414062503,-0.009587379924285256,-0.0029294771990871615,-0.002396844981071314,4.77087890625,-0.0143701171875,-0.469423828125,-0.07829693604832959,-0.04500742242233912,0.12942962897785096,4.3613305664062505,-1.676513671875,0.3400927734375,-0.10279801807705859,0.04900216405745798,0.14407701497328676
0.040668,2.68481689453125,0.47181884765625004,3.6811450195312503,-0.009321063815277333,-0.0031957933080950856,-0.0007989483270237714,4.74453369140625,-0.026345214843750003,-0.4550537109375,-0.08016114881138506,-0.036751623043093484,0.12490225512471625,4.39007080078125,-1.70525390625,0.3448828125,-0.09560748313384464,0.05992112452678285,0.14061490555618375
0.046488,2.70158203125,0.42870849609375,3.68593505859375,-0.008255799379245638,0.0002663161090079238,-0.0010652644360316951,4.7541137695312505,-0.0143701171875,-0.44786865234375,-0.0772316716122979,-0.033289513625990474,0.12623383566975588,4.3349853515625005,-1.7076489257812502,0.354462890625,-0.0996022247689635,0.05299690569257683,0.14540859551832638
0.05232,2.69918701171875,0.43828857421875,3.71946533203125,-0.007989483270237713,-0.0002663161090079238,-0.006125270507182247,4.7660888671875,0.00718505859375,-0.48379394531250003,-0.0660463950339651,-0.029294771990871615,0.12436962290670041,4.375700683593751,-1.7076489257812502,0.34248779296875004,-0.09454221869781294,0.052464273474560986,0.14274543442824714
0.058132,2.69439697265625,0.4742138671875,3.7146752929687503,-0.004527373853134705,-0.006924218834206019,-0.0013315805450396189,4.7804589843750005,-0.026345214843750003,-0.44307861328125003,-0.07217166554114735,-0.028762139772855768,0.12543488734273212,4.35175048828125,-1.69806884765625,0.33769775390625,-0.09880327644193973,0.06258428561686209,0.14514227940931845
0.063932,2.70158203125,0.469423828125,3.6739599609375,-0.0034621094171030094,0.0034621094171030094,-0.0026631610900792377,4.708608398437501,-0.04071533203125,-0.42391845703125003,-0.07004113666908396,-0.027430559227816148,0.12570120345174002,4.37091064453125,-1.7004638671875,0.354462890625,-0.0884169481906307,0.050600060711505516,0.14833807271741356
0.069752,2.67523681640625,0.4263134765625,3.6931201171875,-0.003728425526110933,0.0053263221801584755,0.0026631610900792377,4.77327392578125,-0.023950195312500002,-0.45984375,-0.06657902725198095,-0.02476739813773691,0.13182647395892227,4.3828857421875,-1.65495849609375,0.28500732421875,-0.090813793171702,0.05193164125654514,0.15259913046154033
0.07556,2.6872119140625,0.42391845703125003,3.6739599609375,-0.007456851052221866,-0.003994741635118856,-0.006391586616190171,4.7541137695312505,-0.06466552734375,-0.41433837890625,-0.061785337289838316,-0.017310547085515045,0.12516857123372419,4.378095703125,-1.67890869140625,0.3400927734375,-0.0996022247689635,0.05273058958356891,0.1488707049354294
0.081368,2.70876708984375,0.4263134765625,3.6931201171875,0.0055926382891664,0.002396844981071314,-0.0034621094171030094,4.734953613281251,-0.050295410156250005,-0.45744873046875,-0.05086637682051344,-0.009587379924285256,0.12223909403463702,4.397255859375,-1.6908837890625001,0.32572265625,-0.11771172018150232,0.061785337289838316,0.15180018213451657
0.087184,2.70158203125,0.47181884765625004,3.650009765625,0.004793689962142628,0.007456851052221866,0.002396844981071314,4.7133984375,-0.009580078125,-0.45984375,-0.043409525768291574,-0.013848437668412037,0.1198422490535657,4.39007080078125,-1.66693359375,0.277822265625,-0.11558119130943892,0.04713795129440251,0.15313176267955617
0.093008,2.7063720703125003,0.469423828125,3.650009765625,-0.002396844981071314,0.003994741635118856,-0.008522115488253561,4.71579345703125,-0.02155517578125,-0.4550537109375,-0.034887410280038014,-0.014913702104443732,0.12010856516257362,4.3637255859375,-1.6813037109375002,0.34248779296875004,-0.12490225512471625,0.04154531300523611,0.14753912439038977
0.09882,2.66086669921875,0.45265869140625004,3.69551513671875,0.0026631610900792377,0.007190534943213942,-0.0077231671612297895,4.73974365234375,-0.011975097656250001,-0.4742138671875,-0.041811629114244034,-0.011984224905356571,0.12277172625265287,4.3278002929687505,-1.6525634765625001,0.31374755859375003,-0.13262542228594604,0.043675841877299504,0.13901700890213622
0.104628,2.692001953125,0.44307861328125003,3.6883300781250004,0.0005326322180158476,0.003994741635118856,-0.004793689962142628,4.734953613281251,-0.009580078125,-0.47181884765625004,-0.033289513625990474,-0.0005326322180158476,0.12463593901570832,4.39965087890625,-1.6813037109375002,0.32332763671875003,-0.13502226726701735,0.04154531300523611,0.14354438275527093
0.110452,2.6776318359375,0.45984375,3.67875,0.002396844981071314,0.003994741635118856,-0.0034621094171030094,4.727768554687501,-0.050295410156250005,-0.49337402343750003,-0.034088461953014244,-0.005060006071150552,0.12703278399677964,4.368515625000001,-1.6621435546875,0.30177246093750004,-0.13448963504900152,0.034088461953014244,0.1411475377741996
0.116252,2.6872119140625,0.46702880859375,3.6547998046875003,-0.0013315805450396189,0.0010652644360316951,-0.010120012142301104,4.72537353515625,-0.011975097656250001,-0.43349853515625003,-0.025566346464760685,-0.0055926382891664,0.1411475377741996,4.378095703125,-1.72680908203125,0.28979736328125,-0.12942962897785096,0.04314320965928365,0.13981595722916
0.122068,2.6776318359375,0.4454736328125,3.6619848632812504,0.003728425526110933,-0.0010652644360316951,-0.013582121559404112,4.768483886718751,-0.00718505859375,-0.46223876953125004,-0.02583266257376861,0.007989483270237713,0.13635384781205698,4.368515625000001,-1.71722900390625,0.33290771484375004,-0.12596751956074795,0.03462109417103009,0.13022857730487472
0.127884,2.6967919921875003,0.4454736328125,3.7122802734375,0.0010652644360316951,0.0029294771990871615,-0.0066579027251980945,4.727768554687501,-0.03113525390625,-0.4454736328125,-0.028495823663847845,0.003728425526110933,0.13262542228594604,4.35175048828125,-1.73638916015625,0.26584716796875,-0.12197277792562909,0.038349519697141024,0.13156015784991434
0.133692,2.692001953125,0.47660888671875,3.6619848632812504,0.010918960469324876,0.008522115488253561,-0.010120012142301104,4.70621337890625,-0.01676513671875,-0.42391845703125003,-0.021837920938649752,0.003994741635118856,0.13129384174090641,4.3637255859375,-1.7483642578125,0.3209326171875,-0.11185276578332799,0.03861583580614895,0.12543488734273212
0.139496,2.70876708984375,0.46702880859375,3.7074902343750002,-0.0015978966540475428,0.005858954398174323,-0.00905474770626941,4.73255859375,-0.08382568359375,-0.42870849609375,-0.015978966540475426,0.007989483270237713,0.1286306806508272,4.3733056640625,-1.7339941406250001,0.33769775390625,-0.10146643753201896,0.04207794522325196,0.11691277185447854
0.14532,2.70876708984375,0.45265869140625004,3.67635498046875,0.006924218834206019,0.006391586616190171,-0.011717908796348646,4.722978515625,-0.0718505859375,-0.44068359375000005,-0.010918960469324876,0.010120012142301104,0.13289173839495397,4.3637255859375,-1.78189453125,0.335302734375,-0.0862864193185673,0.04048004856920442,0.11291803021935969
0.15114,2.692001953125,0.45744873046875,3.67875,0.011451592687340723,0.00905474770626941,-0.011984224905356571,4.6990283203125,-0.09340576171875001,-0.43110351562500004,-0.0034621094171030094,0.010652644360316951,0.12996226119586682,4.378095703125,-1.791474609375,0.34727783203125,-0.06950850445106811,0.04154531300523611,0.12010856516257362
0.156952,2.7159521484375,0.42870849609375,3.68593505859375,0.010386328251309028,0.010120012142301104,-0.0055926382891664,4.7133984375,-0.08382568359375,-0.45744873046875,-0.007456851052221866,0.007456851052221866,0.13049489341388265,4.358935546875,-1.81302978515625,0.33769775390625,-0.046072686858370814,0.03542004249805386,0.12037488127158155
0.162772,2.6967919921875003,0.44068359375000005,3.72904541015625,0.007456851052221866,0.0077231671612297895,-0.015712650431467502,4.742138671875,-0.08382568359375,-0.48139892578125004,-0.0026631610900792377,0.014647385995435807,0.13369068672197773,4.3613305664062505,-1.8154248046875001,0.38080810546875005,-0.03888215191515687,0.02822950755483992,0.10679275971217744
0.168592,2.6680517578125,0.45026367187500005,3.6380346679687503,0.011984224905356571,0.0055926382891664,-0.013582121559404112,4.75890380859375,-0.07903564453125,-0.4550537109375,-0.0021305288720633903,0.013582121559404112,0.1267664678877717,4.358935546875,-1.81781982421875,0.354462890625,-0.015712650431467502,0.027963191445831998,0.10972223691126459
0.1744,2.6967919921875003,0.44068359375000005,3.6619848632812504,0.012250541014364494,0.0066579027251980945,-0.016511598758491276,4.7541137695312505,-0.0718505859375,-0.45265869140625004,0.007456851052221866,0.01411475377741996,0.12516857123372419,4.37091064453125,-1.80344970703125,0.39038818359375,0.0029294771990871615,0.019441075957578435,0.10492854694912197
0.180224,2.6872119140625,0.46702880859375,3.65719482421875,0.0066579027251980945,0.006924218834206019,-0.016245282649483352,4.7373486328125,-0.06945556640625,-0.4454736328125,0.005060006071150552,0.011717908796348646,0.1198422490535657,4.3541455078125,-1.8250048828125,0.335302734375,0.019174759848570512,0.027963191445831998,0.09933590865995558
0.186036,2.66565673828125,0.45984375,3.669169921875,0.011984224905356571,0.00905474770626941,-0.01411475377741996,4.74453369140625,-0.076640625,-0.45265869140625004,0.014913702104443732,0.011451592687340723,0.12490225512471625,4.339775390625,-1.7675244140625002,0.36164794921875004,0.03169161697194293,0.022104237047657675,0.10093380531400312
0.191848,2.6896069335937502,0.45026367187500005,3.60929443359375,0.0015978966540475428,0.007456851052221866,-0.016245282649483352,4.7181884765625,-0.10059082031250001,-0.41433837890625,0.006924218834206019,0.017310547085515045,0.11717908796348646,4.3301953125,-1.8226098632812502,0.40954833984375,0.04740426740341044,0.022636869265673522,0.0985369603329318
0.19766,2.66565673828125,0.48379394531250003,3.65719482421875,0.0029294771990871615,0.007456851052221866,-0.013582121559404112,4.72537353515625,-0.09101074218750001,-0.4167333984375,0.022104237047657675,0.017044230976507122,0.12064119738058947,4.339775390625,-1.7938696289062501,0.35206787109375004,0.059388492308767006,0.0223705531566656,0.09667274756987633
0.203472,2.67523681640625,0.43110351562500004,3.70988525390625,0.0042610577441267805,0.006924218834206019,-0.014647385995435807,4.74453369140625,-0.12214599609375,-0.42391845703125003,0.021837920938649752,0.012516857123372417,0.11611382352745477,4.33259033203125,-1.7675244140625002,0.40475830078125,0.07403587830420282,0.027430559227816148,0.09773801200590802
0.209304,2.65128662109375,0.47181884765625004,3.6547998046875003,0.007456851052221866,0.0029294771990871615,-0.00985369603329318,4.7852490234375,-0.124541015625,-0.42391845703125003,0.034887410280038014,0.010386328251309028,0.12303804236166078,4.339775390625,-1.77470947265625,0.36643798828125,0.07270429775916319,0.016511598758491276,0.09214537371674163
0.215128,2.6896069335937502,0.48379394531250003,3.67635498046875,0.008522115488253561,0.0034621094171030094,-0.01411475377741996,4.734953613281251,-0.055085449218750006,-0.45984375,0.03781688747912518,0.013049489341388266,0.12117382959860531,4.34935546875,-1.76991943359375,0.34727783203125,0.07430219441321073,0.011717908796348646,0.08735168375459901
0.22094,2.67523681640625,0.45984375,3.650009765625,-0.0015978966540475428,0.0013315805450396189,-0.013848437668412037,4.74453369140625,-0.047900390625000004,-0.4263134765625,0.04740426740341044,0.0111852765783328,0.11851066850852608,4.3445654296875,-1.76033935546875,0.37122802734375004,0.0806937810294009,0.01757686319452297,0.09187905760773371
0.226752,2.711162109375,0.46702880859375,3.6547998046875003,0.003728425526110933,-0.0002663161090079238,-0.014381069886427884,4.722978515625,-0.050295410156250005,-0.43110351562500004,0.041012680787220264,0.007190534943213942,0.11664645574547061,4.3541455078125,-1.753154296875,0.39038818359375,0.08282430990146429,0.015180018213451656,0.09134642538971786
0.232564,2.6632617187500003,0.40475830078125,3.6739599609375,-0.0005326322180158476,0.0053263221801584755,-0.019441075957578435,4.667893066406251,-0.052690429687500005,-0.44786865234375,0.04314320965928365,0.0111852765783328,0.11904330072654193,4.35175048828125,-1.7124389648437501,0.34248779296875004,0.07643272328527413,0.014913702104443732,0.09001484484467824
0.238376,2.6632617187500003,0.43110351562500004,3.6739599609375,0.003994741635118856,0.0055926382891664,-0.0167779148674992,4.734953613281251,-0.086220703125,-0.46702880859375,0.04127899689622819,0.009321063815277333,0.12250541014364494,4.37091064453125,-1.7076489257812502,0.37122802734375004,0.0660463950339651,0.00905474770626941,0.08681905153658315
0.24418,2.69439697265625,0.4646337890625,3.67635498046875,0.0026631610900792377,-0.0007989483270237714,-0.014647385995435807,4.722978515625,-0.07903564453125,-0.44068359375000005,0.04048004856920442,0.0026631610900792377,0.12170646181662118,4.342170410156251,-1.676513671875,0.38559814453125,0.06551376281594926,0.0029294771990871615,0.08815063208162277
0.249996,2.70397705078125,0.43828857421875,3.6356396484375,0.0053263221801584755,-0.0005326322180158476,-0.018375811521546742,4.7373486328125,-0.052690429687500005,-0.42870849609375,0.0447411063133312,0.009321063815277333,0.12330435847066872,4.3349853515625005,-1.676513671875,0.32332763671875003,0.061785337289838316,0.012250541014364494,0.07856325215733752
0.255808,2.7063720703125003,0.41912841796875,3.6835400390625,0.002396844981071314,0.0034621094171030094,-0.02103897261162598,4.73255859375,-0.047900390625000004,-0.40236328125000004,0.04127899689622819,0.013582121559404112,0.11744540407249439,4.3301953125,-1.6860937500000002,0.35206787109375004,0.055127434564640226,0.010652644360316951,0.08708536764559108
0.261624,2.69439697265625,0.4646337890625,3.6643798828125003,0.0026631610900792377,0.0015978966540475428,-0.01970739206658636,4.722978515625,-0.0718505859375,-0.4358935546875,0.03701793915210141,0.014381069886427884,0.12463593901570832,4.3541455078125,-1.676513671875,0.37601806640625,0.050600060711505516,0.0053263221801584755,0.08921589651765446
0.26744,2.6584716796875,0.45744873046875,3.6643798828125003,-0.0013315805450396189,-0.006125270507182247,-0.014381069886427884,4.73974365234375,-0.09580078125000001,-0.40475830078125,0.03595267471606971,0.013848437668412037,0.12410330679769248,4.3733056640625,-1.676513671875,0.4167333984375,0.04420847409531535,0.004793689962142628,0.08921589651765446
0.273268,2.71834716796875,0.48618896484375,3.6619848632812504,0.004527373853134705,-0.0007989483270237714,-0.016245282649483352,4.7541137695312505,-0.09819580078125001,-0.39996826171875,0.041012680787220264,0.006125270507182247,0.11824435239951817,4.35175048828125,-1.6717236328125,0.37362304687500003,0.041811629114244034,0.006391586616190171,0.09001484484467824
0.279076,2.7063720703125003,0.43349853515625003,3.6883300781250004,-0.0005326322180158476,0.004527373853134705,-0.013848437668412037,4.722978515625,-0.086220703125,-0.41433837890625,0.03382214584400632,0.006924218834206019,0.12144014570761325,4.33738037109375,-1.7124389648437501,0.42391845703125003,0.040213732460196494,-0.0021305288720633903,0.09693906367888426
0.284888,2.6967919921875003,0.44786865234375,3.669169921875,0.007456851052221866,0.0029294771990871615,-0.014913702104443732,4.74932373046875,-0.08861572265625,-0.42391845703125003,0.036751623043093484,0.0066579027251980945,0.11824435239951817,4.37091064453125,-1.72680908203125,0.39278320312500004,0.03621899082507764,0.0042610577441267805,0.09161274149872578
0.290708,2.682421875,0.47900390625,3.7122802734375,-0.0005326322180158476,0.0031957933080950856,-0.017310547085515045,4.742138671875,-0.09819580078125001,-0.43349853515625003,0.03888215191515687,0.0111852765783328,0.12037488127158155,4.38528076171875,-1.6956738281250001,0.37122802734375004,0.02956108809987954,-0.003994741635118856,0.0929443220437654
0.296516,2.6896069335937502,0.4358935546875,3.6547998046875003,0.011717908796348646,-0.002396844981071314,-0.015978966540475426,4.7181884765625,-0.067060546875,-0.42391845703125003,0.03222424918995878,0.013582121559404112,0.12596751956074795,4.3876757812500005,-1.73159912109375,0.41433837890625,0.02316950148368937,-0.0034621094171030094,0.0974716958969001
0.302328,2.6800268554687503,0.45026367187500005,3.6883300781250004,0.0066579027251980945,-0.006391586616190171,-0.013315805450396189,4.73255859375,-0.07424560546875,-0.39278320312500004,0.03595267471606971,0.0007989483270237714,0.12010856516257362,4.3613305664062505,-1.7196240234375,0.41433837890625,0.010918960469324876,-0.015446334322459579,0.09241168982574956
0.308144,2.70158203125,0.4646337890625,3.6931201171875,0.003728425526110933,-0.0010652644360316951,-0.00905474770626941,4.7804589843750005,-0.0814306640625,-0.41433837890625,0.0380832035881331,0.005060006071150552,0.12357067457967663,4.3637255859375,-1.7004638671875,0.40475830078125,0.010386328251309028,-0.008788431597261484,0.10013485698697934
0.313964,2.6967919921875003,0.44786865234375,3.6380346679687503,0.010918960469324876,0.0005326322180158476,-0.013315805450396189,4.7133984375,-0.067060546875,-0.3975732421875,0.03888215191515687,0.004527373853134705,0.12543488734273212,4.3637255859375,-1.68848876953125,0.43110351562500004,0.0034621094171030094,-0.016511598758491276,0.09214537371674163
0.319772,2.68481689453125,0.43828857421875,3.6404296875,0.0077231671612297895,0.0053263221801584755,-0.014913702104443732,4.7133984375,-0.047900390625000004,-0.41912841796875,0.04394215798630743,0.006125270507182247,0.11904330072654193,4.34696044921875,-1.714833984375,0.3784130859375,0.0,-0.015446334322459579,0.08974852873567031
0.325596,2.6967919921875003,0.45984375,3.726650390625,0.0021305288720633903,0.0031957933080950856,-0.011451592687340723,4.75171875,-0.0383203125,-0.4071533203125,0.042610577441267804,0.003728425526110933,0.12250541014364494,4.378095703125,-1.6908837890625001,0.37601806640625,-0.005858954398174323,-0.009587379924285256,0.08681905153658315
0.331416,2.6872119140625,0.45026367187500005,3.6931201171875,0.0066579027251980945,-0.002396844981071314,-0.01411475377741996,4.73255859375,-0.055085449218750006,-0.38320312500000003,0.035686358607061784,0.0034621094171030094,0.13528858337602528,4.368515625000001,-1.67890869140625,0.3975732421875,-0.0066579027251980945,-0.0077231671612297895,0.07989483270237714
0.337232,2.69918701171875,0.488583984375,3.6811450195312503,0.005060006071150552,0.005858954398174323,-0.012783173232380343,4.69663330078125,-0.05748046875,-0.4454736328125,0.02476739813773691,0.0007989483270237714,0.1310275256318985,4.3637255859375,-1.7004638671875,0.3592529296875,-0.010918960469324876,-0.017843179303530892,0.07776430383031374
0.343048,2.7135571289062503,0.45984375,3.6715649414062503,0.0055926382891664,0.003728425526110933,-0.013049489341388266,4.69184326171875,-0.0431103515625,-0.43110351562500004,0.027430559227816148,0.004527373853134705,0.14460964719130262,4.375700683593751,-1.6956738281250001,0.38559814453125,-0.02024002428460221,-0.012783173232380343,0.07749798772130582
0.348864,2.7135571289062503,0.48379394531250003,3.6883300781250004,0.0034621094171030094,0.003994741635118856,-0.011717908796348646,4.70621337890625,-0.052690429687500005,-0.37362304687500003,0.015180018213451656,-0.0010652644360316951,0.1387506927931283,4.34935546875,-1.7028588867187502,0.33769775390625,-0.02902845588186369,-0.02476739813773691,0.0639158661619017
0.354676,2.6680517578125,0.4550537109375,3.66677490234375,-0.0021305288720633903,0.003994741635118856,-0.0111852765783328,4.73255859375,-0.086220703125,-0.4167333984375,0.013582121559404112,-0.003728425526110933,0.14141385388320754,4.358935546875,-1.714833984375,0.40954833984375,-0.03542004249805386,-0.015978966540475426,0.06631271114297302
0.360504,2.6680517578125,0.4358935546875,3.6811450195312503,0.0013315805450396189,0.006125270507182247,-0.011984224905356571,4.7181884765625,-0.08861572265625,-0.3975732421875,0.0021305288720633903,-0.0034621094171030094,0.1387506927931283,4.358935546875,-1.70525390625,0.36404296875000003,-0.034887410280038014,-0.015978966540475426,0.0660463950339651
0.366324,2.6896069335937502,0.47660888671875,3.68593505859375,0.0021305288720633903,0.005060006071150552,-0.010120012142301104,4.708608398437501,-0.09819580078125001,-0.41194335937500004,-0.0034621094171030094,0.0029294771990871615,0.14008227333816792,4.35654052734375,-1.7028588867187502,0.3879931640625,-0.034088461953014244,-0.011717908796348646,0.06151902118083039
0.372124,2.6800268554687503,0.4981640625,3.6883300781250004,0.0010652644360316951,0.0053263221801584755,-0.010652644360316951,4.73974365234375,-0.08861572265625,-0.39996826171875,-0.008522115488253561,-0.0005326322180158476,0.14061490555618375,4.368515625000001,-1.7459692382812502,0.354462890625,-0.03621899082507764,-0.005858954398174323,0.06578007892495717
0.377944,2.682421875,0.47181884765625004,3.6835400390625,0.0029294771990871615,0.0029294771990871615,-0.010386328251309028,4.73974365234375,-0.13172607421875002,-0.4167333984375,-0.0013315805450396189,-0.0010652644360316951,0.14487596330031055,4.3278002929687505,-1.7483642578125,0.3688330078125,-0.02583266257376861,-0.00985369603329318,0.06285060172587001
0.383756,2.69918701171875,0.45265869140625004,3.70030517578125,-0.0013315805450396189,0.007456851052221866,-0.015180018213451656,4.71100341796875,-0.143701171875,-0.4358935546875,-0.008255799379245638,-0.0018642127630554665,0.14247911831923923,4.339775390625,-1.7842895507812502,0.39996826171875,-0.022104237047657675,-0.007456851052221866,0.059388492308767006
0.38956,2.68481689453125,0.47181884765625004,3.6811450195312503,0.0026631610900792377,0.003994741635118856,-0.010652644360316951,4.7373486328125,-0.1293310546875,-0.38080810546875005,0.0,-0.0034621094171030094,0.13981595722916,4.378095703125,-1.7723144531250001,0.39038818359375,-0.013848437668412037,-0.013049489341388266,0.06231796950785416
0.395368,2.692001953125,0.48379394531250003,3.7050952148437504,0.0007989483270237714,-0.002396844981071314,-0.006125270507182247,4.727768554687501,-0.15088623046875002,-0.4071533203125,0.0018642127630554665,-0.006924218834206019,0.14088122166519168,4.3613305664062505,-1.77949951171875,0.36643798828125,-0.0031957933080950856,-0.02024002428460221,0.057524279545711536
0.401176,2.682421875,0.44786865234375,3.68593505859375,0.0,0.003728425526110933,-0.010120012142301104,4.722978515625,-0.1676513671875,-0.42870849609375,0.01890844373956259,-0.009321063815277333,0.13954964112015206,4.36612060546875,-1.76512939453125,0.40954833984375,0.0015978966540475428,-0.017310547085515045,0.06444849837991756
0.406988,2.692001953125,0.45026367187500005,3.6907250976562502,-0.0015978966540475428,0.003728425526110933,-0.008788431597261484,4.727768554687501,-0.13412109375,-0.43349853515625003,0.02370213370170522,-0.008255799379245638,0.12596751956074795,4.33738037109375,-1.7842895507812502,0.34248779296875004,0.0002663161090079238,-0.0111852765783328,0.06657902725198095
0.412804,2.6800268554687503,0.4742138671875,3.6404296875,-0.007456851052221866,0.0042610577441267805,-0.007190534943213942,4.7565087890625,-0.12214599609375,-0.4358935546875,0.024234765919721065,-0.00985369603329318,0.13448963504900152,4.368515625000001,-1.81302978515625,0.39278320312500004,0.013049489341388266,-0.011717908796348646,0.06657902725198095
0.418616,2.68481689453125,0.42870849609375,3.6739599609375,0.0007989483270237714,0.0015978966540475428,-0.0111852765783328,4.7205834960937505,-0.17244140625,-0.38559814453125,0.02902845588186369,-0.013315805450396189,0.12942962897785096,4.339775390625,-1.8321899414062501,0.37362304687500003,0.007190534943213942,-0.015978966540475426,0.05992112452678285
0.424428,2.682421875,0.45744873046875,3.6907250976562502,0.0005326322180158476,0.0026631610900792377,-0.009321063815277333,4.734953613281251,-0.13651611328125002,-0.42391845703125003,0.027696875336824075,-0.01810949541253882,0.12916331286884303,4.320615234375,-1.80344970703125,0.32811767578125,0.024234765919721065,-0.015180018213451656,0.06578007892495717
0.430244,2.67523681640625,0.4646337890625,3.6643798828125003,0.0002663161090079238,0.0021305288720633903,-0.008255799379245638,4.73255859375,-0.17244140625,-0.45026367187500005,0.02583266257376861,-0.014913702104443732,0.1278317323238034,4.3349853515625005,-1.829794921875,0.39517822265625,0.01411475377741996,-0.013315805450396189,0.06817692390602849
0.43606,2.6680517578125,0.45984375,3.6739599609375,-0.006125270507182247,0.0042610577441267805,-0.0053263221801584755,4.7469287109375005,-0.1772314453125,-0.45265869140625004,0.02609897868277653,-0.02024002428460221,0.12703278399677964,4.3278002929687505,-1.8321899414062501,0.3975732421875,0.014647385995435807,-0.015446334322459579,0.07217166554114735
0.441872,2.6728417968750002,0.46223876953125004,3.66677490234375,0.006924218834206019,-0.0010652644360316951,-0.012250541014364494,4.722978515625,-0.1580712890625,-0.41912841796875,0.028495823663847845,-0.012783173232380343,0.12996226119586682,4.308640136718751,-1.79865966796875,0.41194335937500004,0.02103897261162598,-0.007190534943213942,0.07030745277809188
0.447688,2.6896069335937502,0.44786865234375,3.6356396484375,0.003728425526110933,-0.004793689962142628,-0.0021305288720633903,4.74932373046875,-0.18202148437500001,-0.3879931640625,0.01970739206658636,-0.013848437668412037,0.11611382352745477,4.33738037109375,-1.829794921875,0.41912841796875,0.0223705531566656,-0.0034621094171030094,0.07430219441321073
0.453504,2.6872119140625,0.43828857421875,3.65958984375,-0.0013315805450396189,0.0015978966540475428,-0.003994741635118856,4.727768554687501,-0.17962646484375,-0.42152343750000004,0.012783173232380343,-0.007456851052221866,0.11185276578332799,4.35175048828125,-1.8345849609375,0.38320312500000003,0.011717908796348646,-0.006391586616190171,0.06578007892495717
0.459304,2.6896069335937502,0.44307861328125003,3.6739599609375,-0.005060006071150552,0.0005326322180158476,-0.0042610577441267805,4.761298828125001,-0.19878662109375,-0.49097900390625004,0.014647385995435807,-0.010120012142301104,0.1041295986220982,4.3301953125,-1.82021484375,0.37601806640625,0.0013315805450396189,-0.008255799379245638,0.06338323394388586
0.465112,2.68481689453125,0.45026367187500005,3.6931201171875,0.0,0.004793689962142628,-0.008255799379245638,4.722978515625,-0.17483642578125,-0.42152343750000004,0.008788431597261484,-0.0077231671612297895,0.10093380531400312,4.31103515625,-1.80344970703125,0.39038818359375,-0.010386328251309028,-0.007456851052221866,0.07217166554114735
0.470928,2.692001953125,0.469423828125,3.6452197265625004,0.0005326322180158476,0.006924218834206019,-0.011717908796348646,4.72537353515625,-0.16525634765625,-0.41912841796875,0.010120012142301104,-0.0053263221801584755,0.10812434025721705,4.28947998046875,-1.8345849609375,0.37362304687500003,-0.011984224905356571,-0.005858954398174323,0.07776430383031374
0.47674,2.70397705078125,0.45265869140625004,3.7027001953125,0.0005326322180158476,0.0002663161090079238,-0.012783173232380343,4.7205834960937505,-0.17244140625,-0.44786865234375,0.0007989483270237714,-0.006391586616190171,0.10253170196805066,4.31103515625,-1.791474609375,0.37122802734375004,-0.017843179303530892,-0.0026631610900792377,0.07243798165015528
0.482552,2.70876708984375,0.4454736328125,3.7050952148437504,0.006391586616190171,-0.0013315805450396189,-0.006125270507182247,4.727768554687501,-0.19399658203125,-0.45026367187500005,-0.002396844981071314,-0.006924218834206019,0.09587379924285257,4.34696044921875,-1.8010546875000002,0.36643798828125,-0.01890844373956259,-0.009321063815277333,0.07030745277809188
0.488368,2.70397705078125,0.4454736328125,3.669169921875,0.0,-0.0007989483270237714,-0.010918960469324876,4.72537353515625,-0.18681152343750002,-0.43349853515625003,0.0013315805450396189,-0.004793689962142628,0.08868326429963862,4.2966650390625,-1.8226098632812502,0.35685791015625,-0.017843179303530892,-0.0042610577441267805,0.07803061993932167
0.494188,2.66565673828125,0.4742138671875,3.67635498046875,-0.006924218834206019,0.0,-0.010918960469324876,4.74932373046875,-0.19399658203125,-0.39278320312500004,-0.0018642127630554665,-0.0034621094171030094,0.08548747099154354,4.320615234375,-1.84177001953125,0.34727783203125,-0.02370213370170522,-0.0002663161090079238,0.07323692997717904
0.499996,2.66565673828125,0.4646337890625,3.7122802734375,0.0021305288720633903,-0.0013315805450396189,-0.0066579027251980945,4.7373486328125,-0.20597167968750002,-0.41433837890625,0.0010652644360316951,-0.0034621094171030094,0.07563377495825035,4.32301025390625,-1.829794921875,0.39038818359375,-0.02370213370170522,0.007989483270237713,0.07882956826634543
0.50582,2.6896069335937502,0.4358935546875,3.65240478515625,-0.0018642127630554665,0.003728425526110933,-0.004793689962142628,4.703818359375,-0.22034179687500002,-0.41912841796875,0.013315805450396189,-0.007989483270237713,0.07297061386817112,4.3278002929687505,-1.8441650390625002,0.37362304687500003,-0.026365294791784455,0.008788431597261484,0.08335694211948015
0.51164,2.66086669921875,0.48379394531250003,3.7122802734375,-0.0018642127630554665,-0.003728425526110933,-0.010120012142301104,4.734953613281251,-0.22034179687500002,-0.39517822265625,0.014381069886427884,-0.0042610577441267805,0.06817692390602849,4.31822021484375,-1.8106347656250001,0.37362304687500003,-0.027696875336824075,0.006391586616190171,0.07909588437535336
0.517448,2.6584716796875,0.5029541015625,3.6164794921875,-0.0055926382891664,-0.008522115488253561,-0.0077231671612297895,4.7469287109375005,-0.20118164062500002,-0.39517822265625,0.01411475377741996,-0.01810949541253882,0.06684534336098887,4.282294921875001,-1.8273999023437502,0.36164794921875004,-0.02370213370170522,0.00985369603329318,0.0817590454654326
0.523272,2.68481689453125,0.51013916015625,3.6452197265625004,-0.005858954398174323,-0.005858954398174323,-0.010918960469324876,4.7660888671875,-0.277822265625,-0.3975732421875,0.009587379924285256,-0.011984224905356571,0.05805691176372738,4.32301025390625,-1.8154248046875001,0.38080810546875005,-0.021837920938649752,0.013848437668412037,0.07829693604832959
0.529088,2.6536816406250003,0.44786865234375,3.6643798828125003,-0.005858954398174323,-0.017044230976507122,0.0005326322180158476,4.742138671875,-0.26584716796875,-0.42870849609375,0.02103897261162598,-0.02024002428460221,0.05432848623761645,4.2775048828125,-1.82021484375,0.4071533203125,-0.016245282649483352,0.013315805450396189,0.08468852266451976
0.534904,2.60578125,0.46702880859375,3.70988525390625,-0.0013315805450396189,-0.019973708175594285,0.0042610577441267805,4.761298828125001,-0.25387207031250003,-0.3879931640625,0.02370213370170522,-0.019441075957578435,0.04234426133225988,4.27989990234375,-1.8345849609375,0.39278320312500004,-0.025566346464760685,0.010918960469324876,0.08602010320955938
0.540728,2.6441015625,0.5053491210937501,3.7218603515625004,-0.0042610577441267805,-0.02583266257376861,0.0010652644360316951,4.742138671875,-0.18202148437500001,-0.43110351562500004,0.005060006071150552,-0.03115898475392708,0.04660531907638666,4.358935546875,-1.85853515625,0.3209326171875,-0.03861583580614895,0.0066579027251980945,0.08681905153658315
0.546548,2.6632617187500003,0.48618896484375,3.6715649414062503,-0.00985369603329318,-0.03222424918995878,0.008522115488253561,4.72537353515625,-0.2347119140625,-0.47181884765625004,-0.033289513625990474,-0.02024002428460221,0.05858954398174323,4.34935546875,-1.85853515625,0.3975732421875,-0.0380832035881331,-0.0053263221801584755,0.09534116702483672
0.552348,2.64170654296875,0.48618896484375,3.70030517578125,-0.011451592687340723,-0.03941478413317272,0.01757686319452297,4.73974365234375,-0.20836669921875,-0.46223876953125004,-0.060187440635790776,-0.021571604829641825,0.0492684801664659,4.35654052734375,-1.8992504882812502,0.3305126953125,-0.04154531300523611,-0.013315805450396189,0.08575378710055145
0.558172,2.634521484375,0.5269042968750001,3.6547998046875003,-0.01970739206658636,-0.042610577441267804,0.025033714246744835,4.7469287109375005,-0.21794677734375,-0.536484375,-0.0929443220437654,-0.026365294791784455,0.052464273474560986,4.30385009765625,-1.9136206054687501,0.26584716796875,-0.03888215191515687,-0.029827404208887465,0.08815063208162277
0.56398,2.6967919921875003,0.51013916015625,3.6476147460937502,-0.02956108809987954,-0.04287689355027573,0.02956108809987954,4.80919921875,-0.20597167968750002,-0.469423828125,-0.12463593901570832,-0.022636869265673522,0.05086637682051344,4.29906005859375,-1.9519409179687501,0.28500732421875,-0.03701793915210141,-0.04980111238448175,0.09214537371674163
0.569784,2.7231372070312503,0.488583984375,3.6907250976562502,-0.041012680787220264,-0.041012680787220264,0.03115898475392708,4.81159423828125,-0.26345214843750003,-0.5077441406250001,-0.09827064422392387,-0.01411475377741996,0.05459480234662437,4.27031982421875,-2.002236328125,0.25387207031250003,-0.021305288720633902,-0.0806937810294009,0.09427590258880501
0.575592,2.74229736328125,0.43110351562500004,3.7386254882812504,-0.045273738531347044,-0.03542004249805386,0.030892668644919158,4.9097900390625,-0.36643798828125,-0.51492919921875,-0.031425300862935004,0.01757686319452297,0.03382214584400632,4.2751098632812505,-2.05013671875,0.23231689453125,0.013049489341388266,-0.10945592080225668,0.10120012142301103
0.581404,2.7063720703125003,0.3784130859375,3.70988525390625,-0.03462109417103009,-0.032490565298966705,0.021571604829641825,4.8235693359375,-0.41912841796875,-0.5125341796875,0.05699164732769569,0.027430559227816148,0.008788431597261484,4.29906005859375,-2.1028271484375,0.21794677734375,0.05965480841777493,-0.12330435847066872,0.11744540407249439
0.587212,2.6393115234375,0.38559814453125,3.65958984375,-0.03195793308095085,-0.030626352535911235,0.01890844373956259,4.7900390625,-0.49337402343750003,-0.5652246093750001,0.1645833553668969,0.02956108809987954,-0.0018642127630554665,4.315825195312501,-2.14354248046875,0.1676513671875,0.11957593294455778,-0.13555489948503321,0.13528858337602528
0.593028,2.66086669921875,0.38559814453125,3.6356396484375,-0.027430559227816148,-0.02609897868277653,0.012516857123372417,4.71579345703125,-0.44307861328125003,-0.5843847656250001,0.2649845284628842,0.02902845588186369,-0.03462109417103009,4.315825195312501,-2.1698876953125,0.17483642578125,0.1904160179406655,-0.13502226726701735,0.16564861980292858
0.598848,2.6728417968750002,0.38320312500000003,3.66677490234375,-0.025566346464760685,-0.006924218834206019,0.007456851052221866,4.73016357421875,-0.37601806640625,-0.5891748046875,0.3134540603023263,0.03781688747912518,-0.04234426133225988,4.308640136718751,-2.17707275390625,0.162861328125,0.2535329357755434,-0.14088122166519168,0.1834917991064595
0.604664,2.60817626953125,0.41194335937500004,3.6547998046875003,-0.014913702104443732,-0.01890844373956259,-0.0007989483270237714,4.722978515625,-0.27303222656250004,-0.59635986328125,0.3315635557148651,0.034088461953014244,-0.03781688747912518,4.2775048828125,-2.14833251953125,0.1389111328125,0.3230414402266116,-0.14460964719130262,0.19787286899288736
0.610468,2.66565673828125,0.45026367187500005,3.7218603515625004,-0.017310547085515045,-0.02583266257376861,0.0029294771990871615,4.7541137695312505,-0.143701171875,-0.54366943359375,0.3030677320510173,0.03542004249805386,-0.03861583580614895,4.291875,-2.08606201171875,0.18202148437500001,0.3685814948669665,-0.15286544657054826,0.20266655895503
0.616284,2.69918701171875,0.49576904296875,3.650009765625,-0.011984224905356571,-0.027696875336824075,0.005060006071150552,4.77806396484375,-0.07424560546875,-0.5316943359375,0.2522013552305038,0.05033374460249759,-0.03701793915210141,4.31822021484375,-2.04295166015625,0.21076171875000002,0.415719446161369,-0.15659387209665918,0.199204449537927
0.622096,2.7327172851562502,0.49337402343750003,3.67635498046875,-0.029827404208887465,-0.03222424918995878,0.012516857123372417,4.8523095703125,-0.0143701171875,-0.536484375,0.1680454647839999,0.07456851052221866,-0.03728425526110933,4.2775048828125,-1.9878662109375,0.27063720703125,0.43729105099101084,-0.1579254526416988,0.20586235226312508
0.627912,2.69918701171875,0.47900390625,3.65958984375,-0.03648530693408556,-0.034088461953014244,0.02343581759269729,4.9097900390625,-0.1149609375,-0.5269042968750001,0.07696535550328998,0.09134642538971786,-0.05273058958356891,4.282294921875001,-1.9687060546875002,0.30177246093750004,0.44261737317116934,-0.15739282042368297,0.21864552549550542
0.633728,2.6728417968750002,0.43349853515625003,3.6907250976562502,-0.02450108202872899,-0.044474790204323274,0.022636869265673522,4.8523095703125,-0.27063720703125,-0.53408935546875,-0.0010652644360316951,0.11691277185447854,-0.08016114881138506,4.2679248046875005,-1.983076171875,0.35206787109375004,0.436758418772995,-0.14700649217237394,0.2383529175620918
0.63954,2.6584716796875,0.38080810546875005,3.71946533203125,-0.020506340393610132,-0.0537958540196006,0.015978966540475426,4.81638427734375,-0.40475830078125,-0.49097900390625004,-0.03701793915210141,0.11584750741844685,-0.09773801200590802,4.36612060546875,-1.9854711914062502,0.39038818359375,0.4215784005595434,-0.13475595115800942,0.25992452239173364
0.645348,2.63212646484375,0.4071533203125,3.6811450195312503,-0.017310547085515045,-0.06791060779702056,0.021305288720633902,4.787644042968751,-0.42870849609375,-0.4454736328125,-0.03701793915210141,0.11291803021935969,-0.11744540407249439,4.4068359375,-2.0213964843750003,0.43349853515625003,0.41838260725144827,-0.10519486305812989,0.2825613916574071
0.651168,2.6488916015625,0.36643798828125,3.6883300781250004,-0.011984224905356571,-0.08016114881138506,0.0167779148674992,4.78285400390625,-0.4167333984375,-0.4742138671875,-0.012516857123372417,0.10785802414820914,-0.11744540407249439,4.428391113281251,-2.05732177734375,0.42391845703125003,0.4119910206352581,-0.06977482056007603,0.31478564084736593
0.656976,2.6680517578125,0.4550537109375,3.72904541015625,-0.0015978966540475428,-0.08016114881138506,0.019441075957578435,4.73974365234375,-0.3113525390625,-0.38559814453125,0.015978966540475426,0.10572749527614574,-0.11771172018150232,4.42360107421875,-2.0309765625000002,0.48139892578125004,0.39681100242180645,-0.02103897261162598,0.3451456772742692
0.662776,2.6536816406250003,0.49576904296875,3.7122802734375,-0.008255799379245638,-0.09800432811491595,0.02902845588186369,4.81159423828125,-0.28261230468750004,-0.316142578125,0.02583266257376861,0.08575378710055145,-0.12223909403463702,4.339775390625,-2.0740869140625002,0.42870849609375,0.3941478413317272,-0.0055926382891664,0.3571299021796258
0.668592,2.63212646484375,0.5987548828125,3.7146752929687503,-0.03036003642690331,-0.10892328858424083,0.03462109417103009,4.88344482421875,-0.19399658203125,-0.29458740234375,0.018375811521546742,0.08202536157444053,-0.14301175053725507,4.37091064453125,-2.02858154296875,0.488583984375,0.37870150700926763,0.0077231671612297895,0.373907817047125
0.674404,2.6201513671875003,0.7664062500000001,3.7817358398437504,-0.08655273542757523,-0.15180018213451657,0.05113269292952137,4.98882568359375,-0.16525634765625,-0.28740234375,-0.0021305288720633903,0.08815063208162277,-0.15073491769848485,4.45234130859375,-2.01181640625,0.5412744140625,0.37097833984803785,0.0029294771990871615,0.3941478413317272
0.680216,2.55069580078125,0.50055908203125,3.86316650390625,-0.07590009106725829,-0.17869810914431686,0.06924218834206018,5.06546630859375,-0.20597167968750002,-0.29219238281250004,-0.0026631610900792377,0.09347695426178125,-0.17843179303530893,4.5673022460937505,-1.99984130859375,0.6274951171875001,0.33875409065807904,0.013049489341388266,0.42823630328474144
0.686036,2.3303540039062502,0.6083349609375001,3.90627685546875,-0.09640643146086841,-0.25672872908363853,0.10945592080225668,5.144501953125,-0.3065625,-0.34727783203125,-0.0066579027251980945,0.083889574337496,-0.19334549513975266,4.69184326171875,-2.08845703125,0.69695068359375,0.30759510590415196,0.05352953791059268,0.47564057068815185
0.69186,2.4572900390625003,0.7711962890625,3.9038818359375003,-0.16058861373177805,-0.3347593490229602,0.11744540407249439,5.25706787109375,-0.4358935546875,-0.34727783203125,-0.04820321573043421,0.0985369603329318,-0.2071939328081647,4.6942382812500005,-2.1794677734375,0.6514453125,0.28762139772855766,0.11211908189233591,0.5265069475086653
0.697668,2.3974145507812503,0.5652246093750001,4.052373046875,-0.21198762277030733,-0.43729105099101084,0.10572749527614574,5.4079541015625,-0.69216064453125,-0.3065625,-0.08149272935642468,0.11504855909142307,-0.22663500876574313,4.6128076171875,-2.3135888671875002,0.62031005859375,0.30360036426903314,0.18375811521546742,0.5741775310210837
0.7035,2.2561083984375,0.2682421875,4.109853515625,-0.14381069886427883,-0.552073293973426,0.13954964112015206,5.4079541015625,-0.8669970703125001,-0.29219238281250004,-0.016511598758491276,0.14700649217237394,-0.258592941846694,4.58646240234375,-2.4477099609375,0.6562353515625,0.34408041283823754,0.2181128932774896,0.6274407528226684
0.709304,2.16270263671875,0.469423828125,4.2008642578125,-0.11611382352745477,-0.6894924062215146,0.19014970183165758,5.46782958984375,-1.025068359375,-0.3592529296875,0.02343581759269729,0.14008227333816792,-0.2790992822403041,4.5936474609375,-2.57464599609375,0.67779052734375,0.3829625647533944,0.25459820021157514,0.6796387101882215
0.715116,2.2082080078125,0.8430468750000001,4.188889160156251,-0.16484967147590482,-0.8250473057065478,0.20852551335320432,5.692961425781251,-1.1088940429687502,-0.31853759765625,-0.010652644360316951,0.11558119130943892,-0.31185616364827873,4.6223876953125,-2.7063720703125003,0.79275146484375,0.41039312398121053,0.28362665609343884,0.740891415260044
0.720952,2.20341796875,0.8382568359375,4.26552978515625,-0.23941818199812348,-0.9757822234050327,0.23249396316391746,5.8773779296875,-1.28612548828125,-0.22513183593750002,-0.010652644360316951,0.14540859551832638,-0.35286884443549904,4.67747314453125,-2.79498779296875,0.87897216796875,0.40932785954517886,0.31531827306538174,0.8016114881138506
0.726772,2.2082080078125,0.6179150390625,4.378095703125,-0.27057716675205057,-1.1262508249945098,0.27590348893220906,5.93725341796875,-1.31965576171875,-0.1772314453125,0.03994741635118857,0.16857809700201576,-0.4071973306731155,4.73016357421875,-2.86683837890625,1.025068359375,0.40586575012807585,0.3549993733075624,0.8990831840107507
0.732572,2.2608984375000003,0.6562353515625,4.402045898437501,-0.2623213673728049,-1.285507858181248,0.3289003946247859,5.9827587890625,-1.4298266601562502,-0.21315673828125,0.10466223084011404,0.18082863801638024,-0.4761732029061677,4.72537353515625,-3.0416748046875,1.1088940429687502,0.4154531300523611,0.3829625647533944,0.9938917188175715
0.738396,2.34472412109375,0.67779052734375,4.44515625,-0.2833603399844309,-1.429318557045527,0.3840278291894261,5.93725341796875,-1.5184423828125,-0.20118164062500002,0.19734023677487153,0.18056232190737231,-0.5462143395752517,4.71579345703125,-3.1805859375,1.20469482421875,0.44794369535132783,0.3853594097344657,1.0889665697334003
0.744204,2.5004003906250003,0.77838134765625,4.36612060546875,-0.34194988396617415,-1.5816513713980593,0.46951530018096965,5.97078369140625,-1.55197265625,-0.18441650390625,0.2932140360177241,0.23542344036300464,-0.5960154519597334,4.608017578125001,-3.2715966796875002,1.28612548828125,0.4767058351241836,0.37470676537414876,1.181111943450142
0.750008,2.941083984375,0.73048095703125,4.3014550781250005,-0.4074636467821234,-1.7025588848876567,0.5688512088409252,5.879772949218751,-1.48251708984375,-0.162861328125,0.42583945830367015,0.2841592883114547,-0.6420881388181042,4.5361669921875,-3.25483154296875,1.32923583984375,0.49321743388267486,0.35659726996160995,1.2655341500056538
0.755816,3.93980712890625,1.2645703125,4.569697265625,-0.5126585098402533,-1.7307883924424967,0.6559365764865163,5.77439208984375,-1.28373046875,-0.07903564453125,0.5294364247077524,0.3043993125960569,-0.7126619077052041,4.46671142578125,-3.26441162109375,1.312470703125,0.5089300843141423,0.3323625040418889,1.3393037122008487
0.761628,4.36612060546875,2.22497314453125,4.34935546875,-0.8215851962894448,-1.5638081920945284,0.6905576706575464,5.73128173828125,-0.9077124023437501,0.052690429687500005,0.6032059869029474,0.2881540299465735,-0.8096009713840883,4.473896484375,-3.13987060546875,1.2981005859375,0.48629321504846884,0.3171824858284372,1.4144048549410833
0.767436,4.6319677734375,2.6393115234375,4.21283935546875,-1.2921657609064463,-1.3936321984384652,0.7329019319898062,5.7384667968750005,-0.55803955078125,0.0431103515625,0.6506102543063578,0.2484729297043929,-0.9270463754565826,4.4834765625,-3.05364990234375,1.2765454101562501,0.4420847409531535,0.33529198124097603,1.463407018998541
0.773252,4.82596435546875,2.92431884765625,3.6260595703125,-2.058090890413235,-1.2748552138209313,0.796817798151708,5.898933105468751,-0.03113525390625,0.10059082031250001,0.6103965218461613,0.1869539085235625,-1.0572749527614573,4.52898193359375,-2.9794042968750003,1.2885205078125002,0.3651193854498635,0.37124465595704575,1.4956312681885
0.779076,4.828359375000001,2.1219873046875,3.3218920898437503,-2.892192943826052,-1.2532836089912893,0.866592618711784,6.1743603515625,0.4550537109375,0.13651611328125002,0.5169195675843801,0.13528858337602528,-1.2152004054031562,4.6343627929687505,-2.95784912109375,1.3555810546875,0.2788329661312962,0.45327001753148627,1.5227955113073082
0.784888,5.10857666015625,0.8023315429687501,3.4248779296875003,-3.4823494413876115,-1.2341088491427188,0.8221178285074607,6.2701611328125,0.6442602539062501,-0.076640625,0.47883636399624696,0.08016114881138506,-1.3779195480069977,4.71100341796875,-3.0464648437500004,1.41545654296875,0.2207760543675688,0.5408880173950932,1.530784994577546
0.790692,5.573210449218751,-1.88488037109375,4.136198730468751,-3.476756803098445,-1.2516857123372418,0.5131911420582691,6.025869140625001,0.97477294921875,-0.6251000976562501,0.5195827286744593,0.013848437668412037,-1.5222628790892923,4.8235693359375,-3.1183154296875,1.46335693359375,0.1834917991064595,0.6199839017704466,1.5614113471134572
0.796508,6.198310546875001,-3.32668212890625,4.6798681640625,-2.686863223780943,-1.1070760651459393,0.14274543442824714,5.566025390625001,1.59747802734375,-1.17116455078125,0.4748416223611281,-0.199204449537927,-1.6437030247969056,5.00319580078125,-3.1159204101562503,1.4729370117187501,0.13928332501114413,0.7352987769708775,1.5912387513223447
0.80232,6.258186035156251,-3.3985327148437503,4.761298828125001,-1.5347797362126647,-0.9510148252672959,-0.20346550728205376,5.39597900390625,2.17228271484375,-1.69806884765625,0.11771172018150232,-0.5379585401960061,-1.7403757723667819,5.1684521484375,-3.1374755859375,1.504072265625,0.10226538585904274,0.8993495001197587,1.600559815137622
0.808128,6.10011474609375,-2.08606201171875,4.6607080078125005,-0.6335660233298507,-0.7928230565165891,-0.4016046923839491,5.786367187500001,2.41178466796875,-1.78189453125,-0.36751623043093484,-0.8016114881138506,-1.8002968968935649,5.19479736328125,-3.1422656250000003,1.5088623046875,0.0671116594699968,1.0655307521407031,1.5957661251754793
0.813944,5.6953564453125,-0.277822265625,4.26552978515625,-0.21678131273244997,-0.6684534336098887,-0.4620584491287478,6.4330224609375,2.366279296875,-1.5855029296875,-1.0359696640408236,-0.8663263026027761,-1.8610169697473713,5.11576171875,-3.1805859375,1.48251708984375,0.015978966540475426,1.1659319252366904,1.625060897166351
0.819744,5.2115625,1.31965576171875,3.87274658203125,-0.36005937937871296,-0.6332997072208427,-0.42424156164962257,6.734794921875,2.2944287109375003,-1.4705419921875,-1.7808558209359864,-0.8151936096732547,-1.9006980699895522,5.08462646484375,-3.30273193359375,1.3555810546875,-0.08335694211948015,1.209075134895974,1.6695356873706741
0.82556,4.77327392578125,2.26808349609375,3.41290283203125,-0.9028116095368617,-0.6737797557900471,-0.38029940366331516,6.91442138671875,2.23934326171875,-1.32923583984375,-2.572347296907536,-0.6322344427848111,-1.953162343464113,5.163662109375,-3.40332275390625,1.1448193359375,-0.2162486805144341,1.2191951470382751,1.743571565674877
0.831376,4.435576171875001,2.44531494140625,3.1662158203125004,-1.5877766419052417,-0.8165251902182943,-0.40027311183890946,6.844965820312501,1.9902612304687501,-1.1903247070312502,-3.3313482075801186,-0.37710361035522005,-2.064748793138433,5.2355126953125,-3.4152978515625003,0.9053173828125001,-0.37310886872010124,1.2905678642523986,1.8535601186951496
0.837176,4.29906005859375,2.174677734375,3.0296997070312504,-2.2096247564387435,-1.0404970378939582,-0.5126585098402533,6.56953857421875,1.4705419921875,-1.06099365234375,-3.9500005288055258,-0.20905814557122018,-2.176601558921761,5.288203125,-3.41769287109375,0.6634204101562501,-0.46765108741791417,1.4447648913679865,1.97792974160185
0.842984,4.40923095703125,1.49209716796875,2.93868896484375,-2.6676884639323726,-1.2839099615272005,-0.7816377799382563,6.274951171875,0.7807763671875,-1.0705737304687502,-4.366518923293919,-0.11904330072654193,-2.277535364235764,5.1780322265625,-3.2955468750000003,0.69695068359375,-0.4737763579250964,1.6538230369392066,2.078863546915853
0.8488,4.51940185546875,0.6634204101562501,2.9841943359375,-2.862099223508157,-1.5158712924731021,-1.1723235118528805,6.09053466796875,-0.0431103515625,-1.1352392578125001,-4.547347561310299,-0.08442220655551184,-2.3670175768624264,4.92416015625,-3.0296997070312504,0.7041357421875001,-0.4580637074936289,1.8386464165907057,2.1827268294289435
0.854604,4.50263671875,-0.18202148437500001,3.13508056640625,-2.778475965279669,-1.778991608172931,-1.6719325323517455,5.879772949218751,-0.62989013671875,-1.04662353515625,-4.473577999115104,-0.09108010928070993,-2.474875601010636,4.67747314453125,-2.9195288085937503,0.8286767578125,-0.40373522125601247,1.9366507447056218,2.232527941813425
0.860404,4.4547363281250005,-0.6370751953125,3.3338671875,-2.504969321328531,-2.0381171822376407,-2.16648154677946,5.659431152343751,-0.948427734375,-0.8861572265625001,-4.213387160614362,-0.1834917991064595,-2.6165557710028513,4.45713134765625,-2.6393115234375,0.9532177734375,-0.42796998717573353,2.0394487627826803,2.246110063372829
0.86622,4.4547363281250005,-0.6873706054687501,3.4584082031250003,-2.162753121253349,-2.2841932669609624,-2.6160231387848354,5.6450610351562505,-0.81191162109375,-0.85023193359375,-3.7710361035522006,-0.3416835678571662,-2.736131703947409,4.36612060546875,-2.6536816406250003,1.0705737304687502,-0.5155879870393405,2.0769993341527977,2.232794257922433
0.872032,4.5936474609375,-0.40475830078125,3.6380346679687503,-1.8743327751977676,-2.4746092849016277,-2.9254824574520426,5.8486376953125,-0.48139892578125004,-0.8813671875000001,-3.3052492288973423,-0.43276367713787617,-2.8080370533795485,4.186494140625,-2.5171655273437503,1.02746337890625,-0.6578007892495717,2.0282634862043474,2.2341258384674725
0.877852,4.684658203125,-0.07903564453125,3.68593505859375,-1.7390441918217423,-2.575010457997615,-3.088467916164892,6.018684082031251,-0.1293310546875,-0.79275146484375,-2.90657401371248,-0.43835631542704256,-2.869289758451371,4.1242236328125,-2.6680517578125,0.95082275390625,-0.7944209531706367,2.005626616938674,2.2628879782403284
0.883672,4.7804589843750005,0.0383203125,3.7027001953125,-1.6924388727453556,-2.610164184386661,-3.1217574297908826,5.95641357421875,0.0718505859375,-0.51732421875,-2.637062111396461,-0.39894153129386983,-2.914030864764702,4.0475830078125,-2.6704467773437504,0.8214916992187501,-0.8604673482046018,1.8620822341834031,2.2809974736528673
0.889496,4.71100341796875,-0.124541015625,3.8344262695312503,-1.6607472557734126,-2.625344202600113,-3.063966834136163,5.92048828125,0.143701171875,-0.316142578125,-2.3744744279146484,-0.35659726996160995,-2.9537119650068826,4.052373046875,-2.8500732421875004,0.7424560546875001,-0.8964200229206715,1.7723337054477328,2.2911174857951684
0.895304,4.62478271484375,-0.46702880859375,3.8464013671875,-1.5539544960612353,-2.6245452542730887,-2.925216141343035,5.92048828125,0.22034179687500002,-0.15328125,-2.106294106143669,-0.30626352535911233,-2.9814088403437067,4.0954833984375005,-3.06802001953125,0.6370751953125,-0.7946872692796446,1.684449389475118,2.313754355060842
0.90112,4.50982177734375,-0.75922119140625,3.8104760742187502,-1.3342437061296981,-2.6122947132587244,-2.7142937830087592,5.839057617187501,0.3400927734375,-0.076640625,-1.7827200336990419,-0.26578347678990794,-3.022687837239935,4.20325927734375,-3.0392797851562503,0.6083349609375001,-0.7041397922169504,1.638376702616747,2.3204122577860398
0.906936,4.4116259765625,-1.04183349609375,3.84879638671875,-1.0631339071596317,-2.603239965552455,-2.4687503305034535,5.700146484375001,0.48139892578125004,-0.045505371093750004,-1.5014902225866742,-0.23355922759994915,-3.023220469457951,4.2966650390625,-3.036884765625,0.64905029296875,-0.6050701996660028,1.6298545871284935,2.348375449231872
0.912744,4.33259033203125,-1.1927197265625,3.8583764648437504,-0.719852442648418,-2.5939189017371778,-2.1667478628884678,5.685776367187501,0.59156982421875,-0.0383203125,-1.2588762472804558,-0.17949705747134062,-3.029612056074141,4.3349853515625005,-3.03448974609375,0.7041357421875001,-0.46259108134676363,1.610679827279923,2.375806008459688
0.918576,4.23678955078125,-1.149609375,3.72904541015625,-0.3760383459191884,-2.5832662573768608,-1.8229337661592384,5.65464111328125,0.680185546875,0.01916015625,-1.072721287083917,-0.1209075134895974,-3.0242857338939824,4.3254052734375,-2.9865893554687504,0.661025390625,-0.3102582669942312,1.5811187391800434,2.3923176072181795
0.924388,4.1769140625,-0.96998291015625,3.6380346679687503,-0.09134642538971786,-2.56409149752829,-1.453020690747232,5.606740722656251,0.77838134765625,0.08382568359375,-0.9102684605890835,-0.05858954398174323,-3.037068907126363,4.26552978515625,-2.8764184570312503,0.7041357421875001,-0.19281286292173683,1.5590145021323858,2.3888554978010763
0.9302,4.14098876953125,-0.83107177734375,3.6452197265625004,0.14061490555618375,-2.533997777210395,-1.0799118220271309,5.47740966796875,0.8622070312500001,0.0335302734375,-0.7462177374402025,0.006125270507182247,-3.0381341715623944,4.1481738281250005,-2.78061767578125,0.7664062500000001,-0.12516857123372419,1.526790252942427,2.39737761328933
0.936024,4.0667431640625,-0.69695068359375,3.5015185546875003,0.3102582669942312,-2.519616707323967,-0.7134608560322279,5.4989648437500005,0.9412426757812501,0.028740234375,-0.6255765400596129,0.05725796343670361,-3.046922603159656,4.1050634765625,-2.77103759765625,0.7616162109375001,-0.021571604829641825,1.484978623828183,2.396844981071314
0.941832,4.0356079101562505,-0.5987548828125,3.5518139648437503,0.4649879263278349,-2.5113609079447214,-0.3723099203930775,5.45824951171875,1.063388671875,0.07903564453125,-0.5302353730347763,0.09214537371674163,-3.074885794605488,4.02123779296875,-2.8021728515625,0.75922119140625,0.047936899621426284,1.4455638396950103,2.3715449507155615
0.947644,3.9517822265625,-0.49576904296875,3.37458251953125,0.5898901814525512,-2.5137577529257924,-0.07243798165015528,5.41513916015625,1.0011181640625,-0.01916015625,-0.39681100242180645,0.14514227940931845,-3.085804755074813,4.0859033203125,-2.8596533203125003,0.775986328125,0.15552860766062748,1.3853763990592196,2.3715449507155615
0.95346,3.9709423828125003,-0.30177246093750004,3.30752197265625,0.6969492572737366,-2.5308019839023,0.1834917991064595,5.23072265625,1.005908203125,-0.17004638671875,-0.20852551335320432,0.18508969576050702,-3.067162627444258,3.9901025390625002,-2.86683837890625,0.76880126953125,0.25779399351967025,1.3116068368640246,2.3507722942129434
0.959272,3.9781274414062504,-0.17962646484375,3.2356713867187503,0.754739852928456,-2.5497104276418625,0.3850930936254578,5.0726513671875,1.005908203125,-0.19878662109375,-0.04846953183944213,0.20879182946221225,-3.050118396467751,4.00447265625,-2.94826904296875,0.73048095703125,0.3571299021796258,1.296426818650573,2.316950148368937
0.96508,3.9445971679687504,-0.15328125,3.2045361328125,0.7986820109147634,-2.575809406324639,0.5430185462671566,4.98882568359375,0.98914306640625,-0.18441650390625,0.07643272328527413,0.2226402671306243,-3.029878372183149,4.10745849609375,-2.998564453125,0.7520361328125,0.4825647895223579,1.2692625755317648,2.3278691088382617
0.970904,3.9110668945312503,-0.03113525390625,3.1278955078125,0.8186557190903577,-2.6082999716236057,0.6644586919747698,4.85949462890625,1.05141357421875,-0.20118164062500002,0.22450447989367975,0.21544973218741034,-3.019225727822832,4.13140869140625,-3.0129345703125003,0.775986328125,0.6034723030119553,1.2663330983326775,2.3505059781039352
0.976712,3.879931640625,0.11017089843750001,3.0728100585937503,0.8287757312326588,-2.6373284275054694,0.751277743511353,4.77087890625,1.1520043945312501,-0.22752685546875,0.3672499143219269,0.2138518355333628,-3.008839399571523,4.09308837890625,-2.8979736328125,0.814306640625,0.6697850141549283,1.2639362533516063,2.357962829156157
0.98252,3.8440063476562503,0.15328125,3.02490966796875,0.8029430686588902,-2.654638974590984,0.7957525337156762,4.6894482421875,1.3100756835937502,-0.3113525390625,0.4769721512331915,0.20453077171808548,-2.9822077886707303,4.04518798828125,-2.8093579101562502,0.8214916992187501,0.7209177070844497,1.2817794326551373,2.365153364099371
0.988336,3.89669677734375,0.1676513671875,3.0033544921875,0.7787083027391691,-2.669020044477412,0.8191883513083735,4.5744873046875005,1.41545654296875,-0.3448828125,0.5363606435419584,0.18375811521546742,-2.960902499950097,3.9302270507812502,-2.6728417968750002,0.8047265625000001,0.7491472146392896,1.2865731226172799,2.354234403630046
0.994152,3.9541772460937503,0.20357666015625,2.960244140625,0.7430219441321073,-2.6684874122593962,0.800013591459803,4.512216796875,1.5112573242187501,-0.34727783203125,0.5632585705517588,0.1557949237696354,-2.9345372051583123,3.8104760742187502,-2.5602758789062503,0.852626953125,0.8050735975309536,1.3014868247217235,2.3214775222220716
0.999964,4.0020776367187505,0.29937744140625,2.9458740234375003,0.7134608560322279,-2.651443181282889,0.7744472449950424,4.5146118164062505,1.6334033203125,-0.32572265625,0.583498594836361,0.11611382352745477,-2.917492974181805,3.7913159179687503,-2.42136474609375,0.890947265625,0.821318880180437,1.3158678946081515,2.309759613425723
1.00578,4.04997802734375,0.3496728515625,2.8740234375,0.6508765704153657,-2.6208168287469777,0.7238471842835369,4.46671142578125,1.7627343750000002,-0.43828857421875,0.6175870567893753,0.09108010928070993,-2.9055087492764486,3.7913159179687503,-2.3710693359375,0.948427734375,0.8029430686588902,1.3339773900206902,2.280731157543859
1.011604,4.0954833984375005,0.41194335937500004,2.8333081054687503,0.5853628075994165,-2.5704830841444806,0.6663229047378253,4.3948608398437505,1.82021484375,-0.4981640625,0.6127933668272326,0.06950850445106811,-2.869556074560379,3.70030517578125,-2.31598388671875,0.95082275390625,0.7757788255400819,1.324390010096405,2.2447784828277895
1.017408,4.090693359375,0.3113525390625,2.77582763671875,0.5254416830726336,-2.5374598866274978,0.5893575492345353,4.29906005859375,1.84656005859375,-0.51732421875,0.5406217012860853,0.04820321573043421,-2.834402348171333,3.73623046875,-2.29921875,0.9843530273437501,0.7379619380609568,1.3187973718072385,2.233060574031441
1.023216,4.02602783203125,0.29937744140625,2.7255322265625,0.5097290326411661,-2.5073661663096023,0.5238437864185861,4.339775390625,1.84656005859375,-0.40475830078125,0.4522047530954546,0.02343581759269729,-2.8101675822516117,3.72904541015625,-2.42615478515625,1.01309326171875,0.6932208317476256,1.3374394994377932,2.202167905386522
1.029032,4.052373046875,0.37122802734375004,2.7159521484375,0.48789111170251637,-2.4863271936979765,0.45726475916660514,4.3948608398437505,1.9471508789062502,-0.38080810546875005,0.42930156772077316,0.0167779148674992,-2.7763454364076057,3.6260595703125,-2.3303540039062502,1.1136840820312501,0.576308059893147,1.348891092125134,2.180329984447872
1.034844,4.07871826171875,0.37362304687500003,2.6584716796875,0.46259108134676363,-2.459429266688176,0.41145838841724225,4.2775048828125,1.99984130859375,-0.43349853515625003,0.44980790811438326,-0.028495823663847845,-2.739327497255504,3.65240478515625,-2.308798828125,1.0681787109375,0.401871008492957,1.3853763990592196,2.1113541122148196
1.040656,4.1769140625,0.32811767578125,2.6393115234375,0.44821001146033573,-2.437591345749526,0.3637878049048239,4.35175048828125,2.0453466796875,-0.51013916015625,0.3965446863127985,-0.028495823663847845,-2.6988474486862994,3.4488281250000004,-2.3519091796875,1.0011181640625,0.24794029748637705,1.3086773596649375,2.0769993341527977
1.046484,4.24636962890625,0.22513183593750002,2.6201513671875003,0.4410194765171218,-2.41149236706675,0.3227751241176036,4.461921386718751,2.07648193359375,-0.3784130859375,0.3227751241176036,-0.03036003642690331,-2.6881948043259825,3.4727783203125,-2.366279296875,1.00830322265625,0.11345066243737553,1.2639362533516063,2.057558258195219
1.052308,4.4212060546875005,0.17244140625,2.5770410156250003,0.4593952880386685,-2.3896544461281,0.3022687837239935,4.4834765625,2.0740869140625002,-0.39038818359375,0.2937466682357399,-0.04074636467821234,-2.6921895459611016,3.3865576171875,-2.5051904296875,1.1304492187500002,0.021571604829641825,1.261539408370535,2.0112192552278403
1.058116,4.5649072265625,0.09340576171875001,2.50758544921875,0.49667954329977787,-2.3611586224642522,0.2924150876907003,4.45713134765625,2.02379150390625,-0.43828857421875,0.3523362122174832,-0.0335558297349984,-2.6889937526530066,3.343447265625,-2.6632617187500003,1.17116455078125,-0.038349519697141024,1.156877177530421,2.0080234619197452
1.06394,4.608017578125001,0.00718505859375,2.529140625,0.5411543335041011,-2.3401196498526264,0.28921929438260524,4.4978466796875,2.03337158203125,-0.42391845703125003,0.35872779883367334,-0.01890844373956259,-2.679140056619713,3.4224829101562504,-2.711162109375,1.1735595703125001,-0.12037488127158155,1.146224533170104,2.009088726355777
1.069756,4.6367578125,-0.13412109375,2.50279541015625,0.6285060172587001,-2.337722804871555,0.3046656287050648,4.50024169921875,1.99984130859375,-0.32332763671875003,0.34754252225534055,-0.015180018213451656,-2.673281102221539,3.4248779296875003,-2.8979736328125,1.17595458984375,-0.1286306806508272,1.0961571046766143,2.0080234619197452
1.075564,4.62478271484375,-0.12214599609375,2.38304443359375,0.7017429472358792,-2.3329291149094122,0.3427488322931979,4.493056640625,2.0070263671875,-0.28740234375,0.3752393975921646,-0.03435477806202217,-2.698048500359276,3.36979248046875,-2.9722192382812502,1.32923583984375,-0.15499597544261165,1.0833739314442339,1.9925771275972857
1.0814,4.5361669921875,-0.02155517578125,2.3040087890625003,0.7571366979095273,-2.3398533337436183,0.40213732460196494,4.5361669921875,2.08845703125,-0.28979736328125,0.44421526982521686,-0.04633900296737874,-2.7161579957718147,3.38416259765625,-2.9554541015625,1.30528564453125,-0.21891184160451335,1.0801781381361388,1.978462373819866
1.087208,4.40444091796875,0.02155517578125,2.2273681640625003,0.7627293361986938,-2.365419680208379,0.4854942667214451,4.50024169921875,2.1890478515625,-0.24668701171875002,0.4950816466457303,-0.06338323394388586,-2.743322238890623,3.3314721679687502,-2.90036865234375,1.32923583984375,-0.2631203156998287,1.100684478529749,1.978196057710858
1.093028,4.31822021484375,0.10059082031250001,2.174677734375,0.7656588133977809,-2.4088292059766707,0.5850964914904085,4.38049072265625,2.2273681640625003,-0.22752685546875,0.5169195675843801,-0.09534116702483672,-2.74625171608971,3.2787817382812503,-2.845283203125,1.3651611328125002,-0.3608583277057367,1.0905644663874479,1.9512981307010575
1.098848,4.27271484375,0.0814306640625,2.0645068359375003,0.7451524730041708,-2.4506408350909146,0.6865629290224275,4.378095703125,2.222578125,-0.19160156250000002,0.5584648805896162,-0.12303804236166078,-2.7622306826301855,3.3194970703125,-2.9099487304687504,1.3148657226562501,-0.3922836285686717,1.1475561137151435,1.9486349696109784
1.10466,4.2080493164062505,0.1149609375,2.08845703125,0.7086671660700852,-2.4999093152573804,0.7797735671752009,4.29906005859375,2.26808349609375,-0.15328125,0.5968144002867573,-0.12889699675983513,-2.7771443847346293,3.2883618164062502,-2.8859985351562503,1.3172607421875,-0.3925499446776797,1.1238539800134384,1.9409118024497485
1.110472,4.17930908203125,0.11735595703125,2.069296875,0.678040813534174,-2.5414546282626165,0.8625978770766651,4.27031982421875,2.251318359375,-0.17483642578125,0.6657902725198095,-0.15020228548046902,-2.788063345203954,3.1949560546875,-2.9362939453125003,1.30528564453125,-0.3797667714452993,1.1203918705963354,1.925199152018281
1.116288,4.224814453125,0.047900390625000004,2.0453466796875,0.6721818591359996,-2.5829999412678526,0.929443220437654,4.16972900390625,2.1507275390625002,-0.13651611328125002,0.7222492876294893,-0.17869810914431686,-2.791259138512049,3.1518457031250002,-2.9362939453125003,1.22385498046875,-0.32570460131669077,1.1273160894305414,1.9081549210417739
1.122096,4.2679248046875005,0.01676513671875,2.00942138671875,0.6700513302639363,-2.6043052299884866,0.9970875121256666,4.09787841796875,2.08845703125,-0.20118164062500002,0.8274441506876192,-0.23382554370895708,-2.787530712985938,3.0799951171875,-2.9458740234375003,1.20948486328125,-0.3046656287050648,1.156877177530421,1.8985675411174887
1.127908,4.3349853515625005,0.0,2.0740869140625002,0.6769755490981423,-2.6181536676568986,1.0498181017092356,4.129013671875001,2.117197265625,-0.2682421875,0.9566074635564622,-0.24900556192240875,-2.781671758587764,3.0895751953125004,-3.1255004882812503,1.28133544921875,-0.30626352535911233,1.1310445149566524,1.8903117417382431
1.133724,4.3876757812500005,-0.0431103515625,2.0453466796875,0.7006776827998474,-2.6296052603442392,1.0998855302027253,4.05955810546875,2.14354248046875,-0.30416748046875003,1.0708570743208616,-0.30413299648704895,-2.780606494151732,3.1278955078125,-3.34105224609375,1.29570556640625,-0.2772350694772487,1.1345066243737554,1.8642127630554666
1.139548,4.4068359375,-0.03592529296875,2.04295166015625,0.7102650627241327,-2.610430500495669,1.142229791534985,3.97333740234375,2.2273681640625003,-0.36404296875000003,1.174187724615936,-0.3358246134589919,-2.785400184113875,3.017724609375,-3.12071044921875,1.3172607421875,-0.3608583277057367,1.170192982980817,1.7901768847512636
1.145356,4.41881103515625,-0.00239501953125,2.0453466796875,0.712928223814212,-2.5869946829029717,1.1824435239951816,3.88232666015625,2.35669921875,-0.38559814453125,1.2365056941237902,-0.3707120237390299,-2.7808728102607403,2.98179931640625,-3.50391357421875,1.32205078125,-0.33848777454907114,1.0860370925343132,1.767806331594598
1.151168,4.4307861328125,0.028740234375,2.0142114257812502,0.7155913849042912,-2.536927254409482,1.2112056637680373,3.8440063476562503,2.4237597656250003,-0.45265869140625004,1.292432077015454,-0.401871008492957,-2.7590348893220904,3.190166015625,-3.4512231445312502,1.37234619140625,-0.2623213673728049,1.1291803021935969,1.74703367509198
1.156984,4.488266601562501,0.0383203125,2.05253173828125,0.7060040049800059,-2.484462980934921,1.2447614935030358,3.80568603515625,2.4333398437500002,-0.41912841796875,1.3507553048881895,-0.44288368928017724,-2.735865387838401,3.1278955078125,-3.4248779296875003,1.33881591796875,-0.11771172018150232,1.1909656394834351,1.7350494501866234
1.162792,4.555327148437501,0.09101074218750001,2.05253173828125,0.7012103150178634,-2.413622895938813,1.2759204782569629,3.80568603515625,2.6632617187500003,-0.4071533203125,1.4016216817087028,-0.48229847341334997,-2.7241474790420526,2.9123437500000002,-3.2907568359375,1.30049560546875,-0.022636869265673522,1.1190602900512958,1.7273262830253937
1.168604,4.531376953125,0.1676513671875,1.9950512695312501,0.6809702907332611,-2.3361249082175073,1.2972257669775968,3.8248461914062504,2.77822265625,-0.51013916015625,1.4383733047517964,-0.5107942970771978,-2.7164243118808225,2.90515869140625,-3.247646484375,1.30049560546875,-0.017843179303530892,1.0697918098848298,1.7116136325939262
1.17442,4.51940185546875,0.18681152343750002,1.96152099609375,0.6442186676901677,-2.2663500876574316,1.310275256318985,3.88951171875,2.8428881835937503,-0.6251000976562501,1.429052240936519,-0.5387574885230298,-2.704972719193482,3.0704150390625,-3.3003369140625,1.1735595703125001,-0.007989483270237713,1.0673949649037586,1.6905746599823002
1.18022,4.368515625000001,0.162861328125,1.92320068359375,0.6050701996660028,-2.219478452472037,1.314269997954104,3.8368212890625,2.77582763671875,-0.5867797851562501,1.3616742653575142,-0.5494101328833467,-2.673014786112531,3.03448974609375,-3.5206787109375,1.08494384765625,0.09933590865995558,1.0596717977425287,1.663410416863492
1.186032,4.2583447265625,0.13412109375,1.83697998046875,0.5757754276751312,-2.18059630055688,1.3121394690820405,3.83203125,2.6201513671875003,-0.58198974609375,1.272192052730852,-0.5448827590302121,-2.6533073940459446,3.16142578125,-3.36021240234375,1.1448193359375,0.18002968968935648,1.1046792201648679,1.631985116000557
1.191856,4.1769140625,0.050295410156250005,1.76512939453125,0.57337858269406,-2.170209972305571,1.306280514683866,3.7601806640625,2.52195556640625,-0.5700146484375,1.2325109524886713,-0.5347627468879109,-2.6296052603442392,3.0704150390625,-3.29315185546875,1.25259521484375,0.19467707568479228,1.1840414206492291,1.5960324412844873
1.19768,4.0667431640625,0.07424560546875,1.65495849609375,0.5866943881444561,-2.159024695727238,1.3092099918829534,3.6643798828125003,2.55069580078125,-0.6442602539062501,1.2423646485219644,-0.5355616952149347,-2.6075010232965816,2.92431884765625,-3.1949560546875,1.25259521484375,0.16405072314888106,1.2080098704599422,1.5699334626017107
1.203488,3.92543701171875,0.09340576171875001,1.61663818359375,0.586960704253464,-2.173405765613666,1.3020194569397394,3.5709741210937502,2.6033862304687503,-0.64905029296875,1.2173309342752197,-0.555535403390529,-2.5861957345759476,2.9362939453125003,-3.16382080078125,1.1831396484375,0.1456749116273343,1.1968245938816096,1.5419702711558787
1.209312,3.745810546875,0.11256591796875001,1.4992822265625,0.5893575492345353,-2.193912106007276,1.303084721375771,3.5422338867187504,2.596201171875,-0.6274951171875001,1.14675716538812,-0.5653890994238222,-2.5638251814192823,2.81414794921875,-3.1183154296875,1.1256591796875,0.14194648610122337,1.1864382656303005,1.51613760858211
1.215132,3.6284545898437504,0.19639160156250002,1.47772705078125,0.5805691176372738,-2.2125542336378308,1.3078784113379136,3.42727294921875,2.5171655273437503,-0.6562353515625,1.1054781684918917,-0.5568669839355687,-2.5374598866274978,2.8165429687500003,-3.036884765625,1.12805419921875,0.14460964719130262,1.1765845695970072,1.502821803131714
1.220944,3.4847534179687503,0.27542724609375,1.40108642578125,0.562459622224735,-2.2274679357422746,1.3150689462811276,3.27399169921875,2.5051904296875,-0.63468017578125,1.104146587946852,-0.5427522301581487,-2.5044366891105154,2.72792724609375,-3.0560449218750003,1.08494384765625,0.12383699068868456,1.1622034997105795,1.4804512499750484
1.226768,3.3194970703125,0.28979736328125,1.36037109375,0.5331648502338634,-2.2405174250836626,1.2985573475226364,3.2093261718750004,2.4668701171875003,-0.6083349609375001,1.0673949649037586,-0.5238437864185861,-2.4652882210863503,2.69918701171875,-3.14466064453125,1.1136840820312501,0.14594122773634224,1.1331750438287158,1.4343785631166774
1.23258,3.2093261718750004,0.29219238281250004,1.3867163085937502,0.5113269292952136,-2.242381637846718,1.282312064873153,3.0608349609375,2.4285498046875,-0.59635986328125,1.0301107096426492,-0.5155879870393405,-2.411226050957742,2.57464599609375,-3.2141162109375,1.05620361328125,0.22770027320177483,1.1137339678711373,1.4168016999221544
1.238388,3.0512548828125,0.277822265625,1.36037109375,0.5057342910060473,-2.2421153217377103,1.2554141378633528,2.9841943359375,2.3135888671875002,-0.5867797851562501,1.0016148859788014,-0.4929511177736669,-2.3571638808291335,2.6009912109375,-3.1853759765625003,0.97477294921875,0.27830033391328035,1.1150655484161769,1.380316392988069
1.24422,2.94347900390625,0.3448828125,1.3412109375,0.5001416527168808,-2.232794257922433,1.2263856819814891,2.7063720703125003,2.17228271484375,-0.67779052734375,1.0125338464481262,-0.5014732332619205,-2.3222764705490953,2.4908203125,-3.1662158203125004,0.996328125,0.3299656590608176,1.0897655180604242,1.3518205693242211
1.250036,2.8213330078125,0.41194335937500004,1.33402587890625,0.4833637378493817,-2.205363698694617,1.1885687945023637,2.7399023437500003,2.24892333984375,-0.613125,1.0048106792868965,-0.4399542120810901,-2.2386532123206075,2.49800537109375,-3.1518457031250002,0.99872314453125,0.3613909599237526,1.0410296701119741,1.3060141985748583
1.255844,2.62733642578125,0.52929931640625,1.2645703125,0.4415521087351376,-2.1683457595425155,1.14675716538812,2.5938061523437503,2.3327490234375,-0.64905029296875,0.9246495304755113,-0.4364921026639871,-2.1888520999361254,2.4764501953125,-3.113525390625,0.8861572265625001,0.41172470452625015,1.0146643753201896,1.2697952077497805
1.261656,2.4572900390625003,0.54366943359375,1.2166699218750001,0.39468047354974306,-2.124403601556208,1.0985539496576857,2.47884521484375,2.3040087890625003,-0.5843847656250001,0.8639294576217048,-0.40559943401906795,-2.111087796105812,2.404599609375,-3.17819091796875,0.86939208984375,0.5115932454042216,0.988831712746421,1.2082761865689502
1.267468,2.3638842773437503,0.49097900390625004,1.21427490234375,0.36911412708498237,-2.0732709086266867,1.041295986220982,2.3327490234375,2.11959228515625,-0.62989013671875,0.7760451416490899,-0.3613909599237526,-2.027198221768316,2.3327490234375,-3.1566357421875,0.8406518554687501,0.6053365157750108,0.9568737796654702,1.1576761258574446
1.273272,2.1890478515625,0.5221142578125,1.25259521484375,0.35633095385260205,-2.0130834679908958,0.9669937918077712,2.2537133789062502,2.00942138671875,-0.5891748046875,0.7251787648285765,-0.29108350714566067,-1.939580221904709,2.2177880859375003,-2.9937744140625,0.8765771484375,0.6788397618611978,0.8956210745936477,1.0980213174396698
1.279092,1.9974462890625,0.57719970703125,1.197509765625,0.3462109417103009,-1.935851796378598,0.8812400047072197,2.0812719726562503,1.96152099609375,-0.51492919921875,0.6340986555478665,-0.2474076652683612,-1.8469022159699515,2.2944287109375003,-2.8883935546875,0.7472460937500001,0.7185208621033784,0.904942138408925,1.0452907278561008
1.284904,1.80344970703125,0.680185546875,1.159189453125,0.34221620007518205,-1.8668759241455457,0.7944209531706367,1.83697998046875,1.9351757812500001,-0.5316943359375,0.5488775006653309,-0.21118867444328357,-1.7425063012388453,2.174677734375,-2.61775634765625,0.74006103515625,0.7856325215733752,0.8620652448586493,0.9917611899455082
1.290716,1.638193359375,0.67779052734375,1.178349609375,0.3174488019374451,-1.7867147753341606,0.7057376888709981,1.76512939453125,1.8776953125,-0.5221142578125,0.4593952880386685,-0.16005598151376219,-1.64956197919508,2.12917236328125,-2.6393115234375,0.699345703125,0.8633968254036889,0.8117315002561517,0.9243832143665035
1.29652,1.53041748046875,0.65863037109375,1.235830078125,0.31265511197530255,-1.694569401617419,0.6109291540641771,1.7196240234375,1.7004638671875,-0.5269042968750001,0.3797667714452993,-0.10546117916713782,-1.5382418456297677,2.11959228515625,-2.5914111328125,0.6466552734375001,0.9275790076745986,0.8295746795596826,0.8639294576217048
1.302336,1.3747412109375001,0.6634204101562501,1.13763427734375,0.3211772274635561,-1.5989619184835744,0.5091964004231503,1.6262182617187502,1.5088623046875,-0.5077441406250001,0.32197617579057985,-0.026365294791784455,-1.4346448792256854,1.96631103515625,-2.41657470703125,0.6658154296875001,0.9025452934278537,0.7691209228148839,0.7920241081895654
1.308152,1.2693603515625,0.613125,1.22385498046875,0.3376888262220474,-1.498827061496595,0.4074636467821234,1.41066650390625,1.36037109375,-0.41194335937500004,0.27590348893220906,0.030093720317895388,-1.327319487295492,1.9639160156250002,-2.3734643554687502,0.59635986328125,0.8764463147450772,0.7185208621033784,0.7097324305061169
1.313968,1.13284423828125,0.5867797851562501,1.1831396484375,0.3672499143219269,-1.3930995662204493,0.30386668037804104,1.32444580078125,1.2070898437500002,-0.354462890625,0.24927187803141665,0.090813793171702,-1.2285162108535523,1.8273999023437502,-2.30640380859375,0.53887939453125,0.8863000107783704,0.6764429168801264,0.6266418044956447
1.319784,1.0322534179687501,0.536484375,1.1903247070312502,0.4109257561992264,-1.285507858181248,0.21145499055229147,1.2669653320312502,1.0873388671875,-0.3305126953125,0.24367923974225025,0.15153386602550864,-1.1134676517621294,1.80823974609375,-2.16509765625,0.469423828125,0.8436894333371026,0.639424977728025,0.5515406617554102
1.325596,0.871787109375,0.49576904296875,1.1879296875,0.46658582298188245,-1.173921408506928,0.14460964719130262,1.1903247070312502,0.95561279296875,-0.239501953125,0.2593918901737178,0.21491709996939448,-1.0050769953959044,1.72680908203125,-2.0381616210937503,0.53887939453125,0.7656588133977809,0.5973470325047731,0.4711131968350172
1.331412,0.73527099609375,0.45744873046875,1.1639794921875,0.5195827286744593,-1.0572749527614573,0.11424961076439931,1.120869140625,0.8861572265625001,-0.19399658203125,0.2932140360177241,0.2663161090079238,-0.904942138408925,1.6357983398437501,-1.99265625,0.5700146484375,0.6764429168801264,0.5459480234662437,0.3906857319146242
1.337228,0.5891748046875,0.42391845703125003,1.09931396484375,0.5850964914904085,-0.9424927097790423,0.08309062601047222,1.0681787109375,0.8813671875000001,-0.19878662109375,0.3326288201508968,0.332096187932881,-0.7992146431327792,1.5567626953125,-1.916015625,0.5795947265625,0.6407565582730647,0.47217846127104884,0.321443543572564
1.343028,0.46223876953125004,0.37601806640625,1.1543994140625,0.6458165643442152,-0.8271778345786113,0.0705737688870998,1.00830322265625,0.83107177734375,-0.17244140625,0.3813646680993469,0.3909520480236321,-0.6807039746242531,1.4418017578125,-1.83697998046875,0.62031005859375,0.6050701996660028,0.3683151787579586,0.23941818199812348
1.34884,0.3448828125,0.34248779296875004,1.17116455078125,0.716390333231315,-0.7025418955629029,0.06231796950785416,0.9220825195312501,0.8406518554687501,-0.17004638671875,0.4306331482658128,0.47004793239898546,-0.5675196282958855,1.3939013671875,-1.7962646484375,0.5891748046875,0.5611280416796954,0.2743055922781615,0.14514227940931845
1.354656,0.296982421875,0.33290771484375004,1.178349609375,0.7661914456157968,-0.5779059565471946,0.0604537567447987,0.7879614257812501,0.775986328125,-0.15567626953125,0.4490089597873595,0.5368932757599744,-0.4447479020432327,1.3483959960937502,-1.7004638671875,0.7137158203125,0.49002164057457975,0.1632517748218573,0.06657902725198095
1.360468,0.30416748046875003,0.2347119140625,1.1903247070312502,0.8207862479624211,-0.4466121148062882,0.05912217619975908,0.7807763671875,0.6945556640625,-0.17244140625,0.4913532211196194,0.5981459808317968,-0.30386668037804104,1.3100756835937502,-1.6334033203125,0.69216064453125,0.4143878656163294,0.05166532514753722,-0.019174759848570512
1.36628,0.3113525390625,0.16046630859375,1.20948486328125,0.8870989591053942,-0.3113235314302629,0.05619269900067192,0.75922119140625,0.5652246093750001,-0.18202148437500001,0.5414206496131091,0.6655239564108015,-0.17656758027225347,1.23822509765625,-1.59747802734375,0.75443115234375,0.3326288201508968,-0.09560748313384464,-0.08468852266451976
1.3721,0.28740234375,0.0718505859375,1.22385498046875,0.9526127219213434,-0.1824265346704278,0.0537958540196006,0.74006103515625,0.5700146484375,-0.16525634765625,0.5954828197417176,0.7219829715204814,-0.05033374460249759,1.2597802734375,-1.55197265625,0.8382568359375,0.26951190231601885,-0.23116238261887784,-0.16378440703987313
1.377932,0.30416748046875003,0.0718505859375,1.2669653320312502,1.0080064725949915,-0.05858954398174323,0.06471481448892548,0.79275146484375,0.661025390625,-0.18920654296875,0.6559365764865163,0.7488808985302817,0.06950850445106811,1.350791015625,-1.5112573242187501,0.871787109375,0.19893813342891906,-0.36991307541200613,-0.24607608472332157
1.38374,0.35685791015625,0.09819580078125001,1.2286450195312502,1.0338391351687601,0.05965480841777493,0.07270429775916319,0.8669970703125001,0.79754150390625,-0.28500732421875,0.737162989733933,0.7781756705211533,0.20905814557122018,1.4561718750000001,-1.5759228515625001,0.7999365234375,0.0884169481906307,-0.4796353123232707,-0.33422671680494437
1.389572,0.3592529296875,0.09101074218750001,1.26217529296875,1.0255833357895145,0.20293287506403793,0.07456851052221866,0.83586181640625,0.9220825195312501,-0.3305126953125,0.7558051173644877,0.8064051780759932,0.3438140967292296,1.51365234375,-1.5831079101562502,0.795146484375,-0.020506340393610132,-0.5683185766229094,-0.433296309355892
1.39538,0.39517822265625,0.14130615234375002,1.2669653320312502,0.9917611899455082,0.3105245831032391,0.06737797557900471,0.8430468750000001,1.0538085937500001,-0.32811767578125,0.7153250687952832,0.8367652145028965,0.48469531839442126,1.56873779296875,-1.6621435546875,0.8478369140625001,-0.13635384781205698,-0.6253102239506051,-0.5336974824518793
1.401192,0.48139892578125004,0.086220703125,1.25259521484375,0.9275790076745986,0.4444815859342248,0.04580637074936289,0.833466796875,1.120869140625,-0.28500732421875,0.632500758893819,0.8572715548965066,0.6253102239506051,1.6142431640625001,-1.71722900390625,0.9077124023437501,-0.23888554978010765,-0.6612628986666748,-0.6314354944577872
1.407016,0.5795947265625,0.028740234375,1.28373046875,0.8716526247829346,0.5632585705517588,0.003994741635118856,0.8286767578125,1.11847412109375,-0.277822265625,0.5536711906274735,0.8532768132613878,0.7688546067058759,1.7004638671875,-1.7292041015625002,0.9867480468750001,-0.2953445648897875,-0.6908239867665543,-0.7414240474780598
1.412832,0.69695068359375,-0.028740234375,1.312470703125,0.8255799379245637,0.6841660840413561,-0.0380832035881331,0.890947265625,1.06099365234375,-0.3448828125,0.5382248563050139,0.8468852266451976,0.9265137432385668,1.7675244140625002,-1.80823974609375,1.08494384765625,-0.32570460131669077,-0.7068029533070297,-0.8338357373038093
1.41864,0.85981201171875,-0.09819580078125001,1.30049560546875,0.7850998893553593,0.7952199014976604,-0.07749798772130582,0.9580078125,1.1567944335937501,-0.40475830078125,0.5368932757599744,0.8412925883560313,1.0769823448280438,1.8489550781250002,-1.8657202148437502,1.101708984375,-0.33103092349684926,-0.733434564207822,-0.9326390137457491
1.424472,1.0298583984375,-0.1293310546875,1.35797607421875,0.723314552065521,0.9131979377881707,-0.11824435239951817,1.0873388671875,1.2885205078125002,-0.42152343750000004,0.5046690265700156,0.8207862479624211,1.2173309342752197,1.89685546875,-1.8753002929687501,1.17595458984375,-0.37124465595704575,-0.7350324608618697,-1.020789645827372
1.43028,1.20469482421875,-0.11256591796875001,1.3915063476562501,0.6593986859036193,1.0349043996047917,-0.15073491769848485,1.2406201171875,1.3699511718750002,-0.4742138671875,0.4556668625125576,0.7965514820427,1.349157408234142,1.906435546875,-1.99984130859375,1.16637451171875,-0.40826259510914714,-0.7872304182274227,-1.121190818923359
1.436088,1.28373046875,-0.086220703125,1.35797607421875,0.5909554458885828,1.1518171714592704,-0.16538230369392068,1.29091552734375,1.44898681640625,-0.44307861328125003,0.37896782311827554,0.7728493483409948,1.4737933472498501,1.99265625,-2.059716796875,1.17116455078125,-0.42290998110458294,-0.8258462540335717,-1.2040151288248235
1.441896,1.4034814453125,-0.06945556640625,1.4250366210937502,0.5009406010439046,1.2634036211335904,-0.17443705140019009,1.4130615234375001,1.5663427734375002,-0.44307861328125003,0.3139866925203421,0.740891415260044,1.6042882406637329,2.0070263671875,-2.12677734375,1.21427490234375,-0.4356931543369633,-0.8564726065694829,-1.2903015481433908
1.447704,1.580712890625,-0.13651611328125002,1.465751953125,0.41944787168747993,1.3784521802250136,-0.17204020641911877,1.5759228515625001,1.6238232421875,-0.45026367187500005,0.2681803217709792,0.7214503393024655,1.7345168179686077,2.1603076171875,-2.155517578125,1.1879296875,-0.464721610218827,-0.8492820716262689,-1.3773869157889818
1.453512,1.80344970703125,-0.2442919921875,1.4897021484375002,0.36991307541200613,1.4860438882642146,-0.1645833553668969,1.7411791992187502,1.59747802734375,-0.5125341796875,0.26258768348181283,0.6982808378187761,1.8823222584680053,2.22018310546875,-2.1507275390625002,1.24780517578125,-0.489222692247556,-0.8793757919441644,-1.4474280524580658
1.459328,2.0070263671875,-0.32332763671875003,1.57831787109375,0.34940673501839603,1.6088156145168675,-0.15526229155161955,1.8920654296875001,1.6334033203125,-0.58198974609375,0.27616980504121696,0.6974818894917524,2.0098876746828007,2.29682373046875,-2.212998046875,1.1639794921875,-0.499609020498865,-0.887365275214402,-1.488440733245286
1.465152,2.212998046875,-0.37362304687500003,1.55197265625,0.35286884443549904,1.747299991200988,-0.12996226119586682,2.0477416992187503,1.6238232421875,-0.5316943359375,0.2737729600601457,0.6948187284016731,2.1273330787552953,2.3614892578125,-2.2776635742187503,1.18074462890625,-0.4490089597873595,-0.9302421687646778,-1.530784994577546
1.470968,2.34951416015625,-0.37122802734375004,1.6334033203125,0.3605920115967288,1.8988338572264967,-0.10386328251309028,2.1028271484375,1.7196240234375,-0.49097900390625004,0.28762139772855766,0.6623281631027065,2.211755285310807,2.39501953125,-2.27287353515625,1.197509765625,-0.4125236528532739,-0.9861685516563418,-1.5592808182413938
1.476776,2.42615478515625,-0.40475830078125,1.6262182617187502,0.3728425526110933,2.0290624345313715,-0.06737797557900471,2.16509765625,1.7938696289062501,-0.57240966796875,0.3014698353969697,0.6231796950785417,2.323874367203143,2.4333398437500002,-2.2608984375000003,1.20469482421875,-0.4032025890379966,-1.0396980895669345,-1.5989619184835744
1.482592,2.52195556640625,-0.32332763671875003,1.638193359375,0.3685814948669665,2.156095218528151,-0.027696875336824075,2.28005859375,1.8992504882812502,-0.5843847656250001,0.3371561940040315,0.5984122969408048,2.4197481664459954,2.557880859375,-2.25850341796875,1.1472143554687502,-0.366983598212919,-1.034105451277768,-1.6442356570149215
1.4884,2.5770410156250003,-0.25147705078125,1.64058837890625,0.36192359214176845,2.2796658931078277,0.009587379924285256,2.34472412109375,1.9423608398437502,-0.6370751953125,0.3592604310516892,0.5997438774858443,2.5246767133951176,2.5339306640625003,-2.289638671875,1.1879296875,-0.4783037317782311,-1.11080449067205,-1.7134778453569817
1.494216,2.6896069335937502,-0.24189697265625001,1.7028588867187502,0.34993936723641184,2.387257601147029,0.04713795129440251,2.462080078125,2.0453466796875,-0.63468017578125,0.3542004249805386,0.5928196586516383,2.64238843357662,2.5051904296875,-2.28245361328125,1.2118798828125001,-0.5547364550635052,-1.2186625148202592,-1.7688715960306298
1.50004,2.76145751953125,-0.22273681640625,1.6717236328125,0.3451456772742692,2.488191406461032,0.06950850445106811,2.53632568359375,2.08845703125,-0.6825805664062501,0.34887410280038017,0.611461786282193,2.766225424265304,2.615361328125,-2.23455322265625,1.178349609375,-0.6348976038748902,-1.2687299433137489,-1.8154769151070165
1.505844,2.92431884765625,-0.23710693359375,1.7411791992187502,0.335558297349984,2.571548348580512,0.08575378710055145,2.69918701171875,2.12917236328125,-0.69216064453125,0.31611722139240556,0.6085323090831058,2.8631644879441884,2.634521484375,-2.212998046875,1.13763427734375,-0.7384945702789727,-1.3145363140631119,-1.8804580457049498
1.511656,3.1470556640625,-0.2347119140625,1.80823974609375,0.33529198124097603,2.654638974590984,0.07563377495825035,2.883603515625,2.1219873046875,-0.7256909179687501,0.31878038248248475,0.6298375978037397,2.9766151503815643,2.806962890625,-2.31837890625,1.044228515625,-0.8439557494461105,-1.317199475153191,-1.9406454863407405
1.517472,3.25483154296875,-0.24189697265625001,1.8321899414062501,0.3470098900373247,2.728674852895187,0.06578007892495717,2.9698242187500004,2.0932470703125,-0.76880126953125,0.3542004249805386,0.635962868310922,3.0530478736668383,2.8333081054687503,-2.43573486328125,1.0322534179687501,-0.8964200229206715,-1.373125858044855,-1.992310811488278
1.523288,3.3650024414062503,-0.15088623046875002,1.9136206054687501,0.34035198731212657,2.802444415090382,0.034887410280038014,3.07760009765625,2.1890478515625,-0.775986328125,0.3486077866913722,0.6351639199838982,3.135339551350287,3.0225146484375003,-2.50758544921875,1.1064990234375,-0.8849684302333307,-1.3464942471440626,-2.029595066749387
1.529096,3.4655932617187504,-0.09580078125000001,1.916015625,0.3113235314302629,2.8599686946360934,-0.0005326322180158476,3.1470556640625,2.3423291015625,-0.77838134765625,0.3099919508852233,0.6146575795902881,3.193662779223022,3.1063403320312504,-2.5818310546875,1.08494384765625,-0.9147958344422182,-1.3084110435559295,-2.071140379754623
1.53492,3.56618408203125,0.00718505859375,1.8920654296875001,0.2530003035575276,2.910835071456607,-0.040213732460196494,3.2332763671875,2.4333398437500002,-0.8047265625000001,0.28016454667633583,0.580036485419258,3.30551554500635,3.12071044921875,-2.70876708984375,1.0705737304687502,-0.9928264543815398,-1.2732573171668835,-2.123870969338192
1.540752,3.745810546875,0.03592529296875,1.96631103515625,0.1725728386371346,2.967826718784303,-0.09214537371674163,3.38416259765625,2.519560546875,-0.814306640625,0.19973708175594285,0.5510080295373944,3.3763556300024575,3.190166015625,-2.77103759765625,1.06099365234375,-1.0317086062966967,-1.2551478217543448,-2.2000373765144583
1.54656,3.9182519531250004,0.028740234375,1.9950512695312501,0.10333065029507443,3.0160299345147368,-0.1422128022102313,3.5422338867187504,2.4572900390625003,-0.8622070312500001,0.13448963504900152,0.5629922544427509,3.393133544869957,3.2141162109375,-2.7566674804687503,1.149609375,-1.0524812627993148,-1.2620720405885508,-2.257029023842154
1.552392,4.03081787109375,0.011975097656250001,2.0070263671875,0.05193164125654514,3.0559773508659256,-0.18535601186951495,3.70988525390625,2.5147705078125,-0.89813232421875,0.08548747099154354,0.5747101632390995,3.4645062620840803,3.2284863281250002,-2.7997778320312503,1.1687695312500002,-1.0607370621785603,-1.310275256318985,-2.3148196194968733
1.558196,3.9517822265625,-0.009580078125,1.9519409179687501,0.012783173232380343,3.060238408610052,-0.23409185981796501,3.7697607421875,2.69439697265625,-0.91729248046875,-0.0042610577441267805,0.5672533121868777,3.5100463167244356,3.2524365234375003,-2.84767822265625,1.18074462890625,-1.0769823448280438,-1.3544837304143003,-2.366484944644411
1.564008,3.9805224609375003,0.050295410156250005,1.97110107421875,-0.04420847409531535,3.050118396467751,-0.2854908688564943,3.8511914062500003,2.8261230468750003,-0.9220825195312501,-0.12410330679769248,0.5233111542005703,3.55691795190983,3.3650024414062503,-2.9075537109375,1.09452392578125,-1.0626012749416158,-1.3912353534573938,-2.428003965825241
1.569828,4.0380029296875,0.13651611328125002,2.0070263671875,-0.12144014570761325,3.0099046640075544,-0.33529198124097603,3.9901025390625002,2.7901977539062504,-0.9723779296875,-0.27510454060518524,0.48869006002954013,3.5939358910619315,3.3961376953125,-3.00095947265625,1.12326416015625,-1.0141317431021737,-1.4295848731545349,-2.4762071815556754
1.575644,4.12661865234375,0.15328125,2.00942138671875,-0.20772656502618056,2.968891983220334,-0.3909520480236321,4.136198730468751,2.68481689453125,-1.02267333984375,-0.39468047354974306,0.49881007217184126,3.634149623522128,3.477568359375,-3.0033544921875,1.1136840820312501,-0.9507485091582879,-1.442634362495923,-2.5073661663096023
1.581452,4.2751098632812505,0.15328125,2.10522216796875,-0.2918824554726845,2.915096129200734,-0.4511394886594229,4.2104443359375,2.62733642578125,-0.97477294921875,-0.4985437560628333,0.5291701085987446,3.6916739030678394,3.4919384765625003,-3.03448974609375,1.1903247070312502,-0.8343683695218252,-1.4769891405579454,-2.5664883425093614
1.587284,4.46671142578125,0.16046630859375,2.2752685546875,-0.39015309969660833,2.872751867868474,-0.5217132575465226,4.29427001953125,2.69918701171875,-1.01309326171875,-0.5813680659642976,0.5257079991816416,3.7270939455658936,3.70988525390625,-3.04406982421875,1.2118798828125001,-0.8500810199532928,-1.4213290737752893,-2.62055051263797
1.593096,4.768483886718751,0.17244140625,2.38304443359375,-0.48416268617640545,2.851979211365856,-0.6141249473722723,4.3948608398437505,2.83809814453125,-1.0154882812500001,-0.6807039746242531,0.48309742174037373,3.763845568608987,3.84879638671875,-3.13987060546875,0.99393310546875,-0.8905610685224972,-1.359277420376443,-2.6575684517900715
1.598904,4.9936157226562505,0.1484912109375,2.47884521484375,-0.5757754276751312,2.8770129256126005,-0.7142598043592516,4.531376953125,2.8979736328125,-0.9651928710937501,-0.838629427265952,0.4375573671000188,3.79420560503589,3.9541772460937503,-3.3482373046875002,0.9029223632812501,-0.8607336643136096,-1.2591425633894637,-2.6916569137430857
1.60472,5.340893554687501,0.076640625,2.6393115234375,-0.6540723637234608,2.9489182750447402,-0.8181230868723419,4.641547851562501,2.90515869140625,-0.93645263671875,-0.9901632932914606,0.39707731853081435,3.8107172037943813,3.9972875976562503,-3.477568359375,0.89334228515625,-0.782703044374288,-1.1440940042980405,-2.694586390942173
1.610528,5.63069091796875,-0.0335302734375,2.7638525390625,-0.7057376888709981,3.029345739965133,-0.9185242599683291,4.7565087890625,2.8213330078125,-0.91729248046875,-1.0950918402405827,0.37470676537414876,3.812315100448429,3.94938720703125,-3.5254687500000004,0.8813671875000001,-0.7251787648285765,-1.031175974078681,-2.697782184250268
1.616328,5.8582177734375005,-0.076640625,2.8524682617187502,-0.737429305842941,3.133741654696239,-1.0005496215427696,4.9265551757812505,2.73750732421875,-0.9532177734375,-1.1795140467960945,0.3326288201508968,3.8211035320456905,3.9110668945312503,-3.61408447265625,0.9005273437500001,-0.6559365764865163,-0.9877664483103893,-2.721750634060981
1.622144,6.14322509765625,-0.2347119140625,2.99137939453125,-0.7243798165015527,3.2618397031290507,-1.0769823448280438,5.0726513671875,2.58422607421875,-0.9651928710937501,-1.2290488430715683,0.293480352126732,3.819239319282635,3.9278320312500004,-3.68593505859375,0.99872314453125,-0.4950816466457303,-0.9880327644193972,-2.7521106704878844
1.627956,6.41625732421875,-0.44786865234375,3.1374755859375,-0.6665892208468333,3.4117756725005117,-1.1297129344116128,5.21874755859375,2.3998095703125,-0.97477294921875,-1.2002867032987126,0.24794029748637705,3.8253645897898174,3.9637573242187503,-3.6284545898437504,1.0969189453125001,-0.34434672894724544,-0.992560138272532,-2.787530712985938
1.633764,6.531218261718751,-0.5484594726562501,3.16382080078125,-0.5528722423004497,3.574761131213361,-1.1555455969853814,5.431904296875,2.251318359375,-0.9604028320312501,-1.1001518463117332,0.2530003035575276,3.797401398343985,3.9326220703125,-3.5685791015625004,0.96998291015625,-0.21944447382252918,-1.027713864661578,-2.798183357346255
1.639576,6.54558837890625,-0.6466552734375001,3.12071044921875,-0.41678471059740074,3.7265613133478777,-1.1408982109899455,5.54447021484375,2.2776635742187503,-0.9077124023437501,-0.9840380227842784,0.2535329357755434,3.73774658992621,3.9038818359375003,-3.61408447265625,0.97477294921875,-0.14860438882642146,-1.083107615335226,-2.7915254546210573
1.645404,6.385122070312501,-0.6059399414062501,3.04406982421875,-0.28016454667633583,3.8381477630221976,-1.1118697551080818,5.53489013671875,2.2106030273437502,-0.8622070312500001,-0.8407599561380154,0.23888554978010765,3.6639770277310153,3.9134619140625,-3.65958984375,1.00830322265625,-0.09986854087797142,-1.117728709506256,-2.784334919677843
1.65122,6.10969482421875,-0.5245092773437501,2.8309130859375,-0.16831178089300783,3.9324236656110028,-1.0562096883254257,5.508544921875,2.2561083984375,-0.7472460937500001,-0.7115966432691724,0.20532972004510924,3.5923379944078837,4.0380029296875,-3.66677490234375,1.0873388671875,-0.06737797557900471,-1.128913986084589,-2.7446538194356624
1.657036,5.80792236328125,-0.34248779296875004,2.71834716796875,-0.11584750741844685,3.9811595135594526,-0.9752495911870169,5.546865234375001,2.27287353515625,-0.69216064453125,-0.6117281023912009,0.20346550728205376,3.5033884139992373,4.014052734375,-3.65958984375,1.12326416015625,0.026365294791784455,-1.1382350498998663,-2.6916569137430857
1.662852,5.5324951171875005,-0.1293310546875,2.5938061523437503,-0.11904330072654193,3.9593215926208027,-0.8772452630721009,5.53728515625,2.2537133789062502,-0.6562353515625,-0.5259743152906494,0.20959077778923602,3.4503915083066605,4.0380029296875,-3.6452197265625004,1.04183349609375,0.10812434025721705,-1.145691900952088,-2.6559705551360238
1.66866,5.3217333984375,-0.1293310546875,2.6009912109375,-0.15020228548046902,3.902063629184099,-0.7717840839049631,5.53728515625,2.05732177734375,-0.6035449218750001,-0.43702473488200294,0.21944447382252918,3.4408041283823754,4.076323242187501,-3.6116894531250003,0.9148974609375,0.2050634039361013,-1.1273160894305414,-2.6277410475811838
1.674468,5.23072265625,-0.22273681640625,2.54590576171875,-0.1478054404993977,3.809119307140334,-0.6878945095674671,5.6378759765625,1.8872753906250002,-0.59635986328125,-0.3717772881750616,0.2383529175620918,3.3486587546656335,4.0571630859375,-3.5110986328125002,0.7711962890625,0.3046656287050648,-1.1243866122314543,-2.59871259169932
1.680288,5.273833007812501,-0.40954833984375,2.557880859375,-0.09347695426178125,3.7151097206605366,-0.6253102239506051,5.633085937500001,1.5926879882812501,-0.6514453125,-0.25433188410256724,0.2769687533682407,3.336940845869285,4.0356079101562505,-3.400927734375,0.689765625,0.4178499750334324,-1.1440940042980405,-2.5776736190876943
1.686088,5.247487792968751,-0.5843847656250001,2.6728417968750002,0.012250541014364494,3.620301185853716,-0.5784385887652105,5.539680175781251,1.3962963867187501,-0.63468017578125,-0.0985369603329318,0.29507824878077954,3.2370723049913135,4.009262695312501,-3.3194970703125,0.71611083984375,0.5193164125654514,-1.157143493639429,-2.561162020329203
1.691892,5.2834130859375,-0.6035449218750001,2.75187744140625,0.15552860766062748,3.5337484504261405,-0.5347627468879109,5.47740966796875,1.30528564453125,-0.6873706054687501,0.07004113666908396,0.2889529782735973,3.1617048461420714,3.9709423828125003,-3.2811767578125,0.8382568359375,0.6319681266758032,-1.2085425026779582,-2.56409149752829
1.697712,5.367238769531251,-0.45744873046875,2.82851806640625,0.28176244333038336,3.470365216482255,-0.4745753062521202,5.4941748046875,1.30528564453125,-0.680185546875,0.2396844981071314,0.2506034585764563,3.0791468523496146,3.975732421875,-3.2859667968750004,0.96998291015625,0.7150587526862754,-1.2743225816029153,-2.5494441115328543
1.703532,5.4079541015625,-0.2682421875,2.9937744140625,0.3486077866913722,3.419765155770749,-0.4013383762749411,5.68338134765625,1.465751953125,-0.699345703125,0.3952131057677589,0.23861923367109972,3.0000509679742615,4.00686767578125,-3.3458422851562504,1.044228515625,0.7576693301275431,-1.3891048245853304,-2.527073558376189
1.709344,5.518125,-0.1149609375,3.113525390625,0.36804886264895065,3.385410377708727,-0.3083940542311757,5.8845629882812505,1.676513671875,-0.756826171875,0.5049353426790235,0.2351571242539967,2.933738256831288,4.129013671875001,-3.38416259765625,0.9675878906250001,0.7819040960472642,-1.4658038639796125,-2.4868598259159924
1.715164,5.5588403320312505,-0.1293310546875,3.2452514648437503,0.3906857319146242,3.365436669533133,-0.2183792093864975,6.09532470703125,1.7675244140625002,-0.69216064453125,0.5246427347456099,0.2649845284628842,2.843989728095618,4.2391845703125,-3.4655932617187504,0.7807763671875,0.8154599257822627,-1.533980787885641,-2.4474450417828195
1.720988,5.64985107421875,-0.24908203125,3.324287109375,0.4324973610288682,3.368632462841228,-0.15552860766062748,6.236630859375,1.7100439453125,-0.67300048828125,0.5166532514753721,0.3065298414681203,2.759301205431098,4.3637255859375,-3.42966796875,1.0346484375,0.8620652448586493,-1.5587481860233778,-2.3888554978010763
1.7268,5.58279052734375,-0.20357666015625,3.4152978515625003,0.49321743388267486,3.3553166573908317,-0.1209075134895974,6.294111328125,1.6908837890625001,-0.6562353515625,0.5289037924897366,0.38562572584347365,2.6666231994963407,4.378095703125,-3.4536181640625,0.9723779296875,0.8676578831478157,-1.5699334626017107,-2.337722804871555
1.732632,5.486989746093751,-0.13651611328125002,3.44643310546875,0.569383841058941,3.331081891471111,-0.11451592687340723,6.164780273437501,1.62142822265625,-0.60114990234375,0.5363606435419584,0.39920784740287774,2.567819923054401,4.50024169921875,-3.2189062500000003,1.06099365234375,0.8487494394082531,-1.5150723441460785,-2.299373285174414
1.738432,5.32412841796875,-0.050295410156250005,3.4440380859375,0.6229133789695337,3.27728603745151,-0.12357067457967663,6.14322509765625,1.5878979492187502,-0.6825805664062501,0.5499427651013626,0.3795004553362914,2.4943166769682144,4.57927734375,-3.05843994140625,1.0969189453125001,0.8466189105361898,-1.4729943989228265,-2.236256367339536
1.744244,5.1660571289062505,0.124541015625,3.47996337890625,0.6370281327469537,3.210707010199529,-0.15286544657054826,6.1552001953125,1.53520751953125,-0.7328759765625,0.5230448380915623,0.3629888565778001,2.443450300147701,4.569697265625,-3.02011962890625,1.07296875,0.8532768132613878,-1.4732607150318344,-2.170742604523587
1.750076,4.97924560546875,0.32572265625,3.4248779296875003,0.587227020362472,3.123089010335922,-0.17949705747134062,6.179150390625001,1.4561718750000001,-0.74964111328125,0.44741106313331197,0.3941478413317272,2.393649187763219,4.548142089843751,-2.9506640625,1.11847412109375,0.9070726672809885,-1.48923968157231,-2.071673011972639
1.755892,4.86428466796875,0.36164794921875004,3.42966796875,0.49747849162680163,3.036536274908347,-0.22556974432971144,6.1264599609375,1.3364208984375001,-0.718505859375,0.36938044319399027,0.43356262546489993,2.337456488762547,4.55772216796875,-2.8524682617187502,1.17116455078125,0.8788431597261485,-1.492169158771397,-1.994973972578357
1.7617,4.64394287109375,0.4454736328125,3.439248046875,0.408795227327163,2.9462551139546607,-0.27510454060518524,5.8845629882812505,1.2717553710937501,-0.6873706054687501,0.24208134308820273,0.45140580476843084,2.298308020738382,4.50263671875,-2.7734326171875003,1.2502001953125002,0.8189220351993657,-1.442634362495923,-1.9449065440848674
1.76752,4.581672363281251,0.49337402343750003,3.42727294921875,0.3033340481600252,2.85144657914784,-0.33875409065807904,5.745651855468751,1.2693603515625,-0.62989013671875,0.10546117916713782,0.42717103884870977,2.2556974432971146,4.493056640625,-2.6967919921875003,1.3268408203125002,0.751277743511353,-1.4114753777419962,-1.9249328359092732
1.773332,4.550537109375,0.46702880859375,3.53265380859375,0.21465078386038658,2.7601001537581222,-0.4013383762749411,5.752836914062501,1.2070898437500002,-0.6466552734375001,-0.015446334322459579,0.38429414529843403,2.2282668840692983,4.4307861328125,-2.69439697265625,1.38192626953125,0.7289071903546874,-1.4018879978177108,-1.8951054317003857
1.779144,4.55772216796875,0.40236328125000004,3.57576416015625,0.14753912439038977,2.687395855998959,-0.4713795129440251,5.853427734375,1.0921289062500001,-0.6658154296875001,-0.08309062601047222,0.3797667714452993,2.1955100026613237,4.4212060546875005,-2.7399023437500003,1.312470703125,0.6697850141549283,-1.4306501375905665,-1.838380100481698
1.784952,4.4786865234375,0.3305126953125,3.70030517578125,0.10146643753201896,2.607234707187574,-0.5400890690680694,5.8486376953125,1.02746337890625,-0.6873706054687501,-0.1131843463283676,0.37444044926514086,2.1672804951064837,4.512216796875,-2.73750732421875,1.1687695312500002,0.5435511784851724,-1.4002901011636633,-1.8152105989980085
1.79076,4.54335205078125,0.335302734375,3.7817358398437504,0.0884169481906307,2.5454493698977356,-0.6082659929740979,5.8917480468750005,0.88855224609375,-0.6466552734375001,-0.15712650431467504,0.35846148272466544,2.1278657109733112,4.493056640625,-2.7327172851562502,1.0921289062500001,0.4500742242233912,-1.3483584599071181,-1.798965316348525
1.796572,4.548142089843751,0.277822265625,3.8368212890625,0.07696535550328998,2.4815335037358337,-0.67085027859096,6.02347412109375,0.8574169921875,-0.61072998046875,-0.2327602792729254,0.3414172517481583,2.0663466897924807,4.50982177734375,-2.80456787109375,1.101708984375,0.3757720298101805,-1.3153352623901355,-1.7797905564999545
1.802392,4.615202636718751,0.27303222656250004,3.9781274414062504,0.08788431597261485,2.446646093455796,-0.7004113666908396,6.33003662109375,0.8957373046875,-0.63947021484375,-0.2700445345340347,0.3169161697194293,1.964347620042446,4.57688232421875,-2.9267138671875,1.14242431640625,0.3057308931410965,-1.2748552138209313,-1.760882112760392
1.8082,4.6702880859375,0.162861328125,4.0475830078125,0.11132013356531215,2.404568148232544,-0.7203850748664339,6.2510009765625005,0.39038818359375,-0.6466552734375001,-0.2806971788943517,0.3483414705823643,1.9132149271129244,4.6343627929687505,-3.0728100585937503,1.17595458984375,0.21491709996939448,-1.275121529929939,-1.6612798879914286
1.814008,4.62957275390625,0.10538085937500001,4.1529638671875,0.15739282042368297,2.365153364099371,-0.7416903635870677,6.1575952148437505,0.296982421875,-0.55324951171875,-0.16751283256598407,0.38349519697141027,1.845304319315904,4.646337890625,-3.29315185546875,1.10410400390625,0.13688648003007284,-1.29935629584966,-1.5619439793314729
1.819824,4.6271777343750005,0.086220703125,4.109853515625,0.21118867444328357,2.321211206113064,-0.7464840535492103,6.14322509765625,0.22752685546875,-0.44786865234375,-0.12303804236166078,0.37310886872010124,1.771268441011701,4.667893066406251,-3.4512231445312502,1.005908203125,0.12916331286884303,-1.2879047031623194,-1.45328700685624
1.82564,4.50024169921875,0.09101074218750001,4.08350830078125,0.2641855801358604,2.278600628671796,-0.7363640414069093,6.298901367187501,0.22034179687500002,-0.35685791015625,-0.07270429775916319,0.35633095385260205,1.6650083135175395,4.701423339843751,-3.5182836914062503,1.0969189453125001,0.16990967754705538,-1.2298477913985921,-1.3542174143052925
1.831444,4.34696044921875,0.09819580078125001,4.0475830078125,0.3043993125960569,2.2066952792396566,-0.7177219137763546,6.332431640625001,0.1149609375,-0.3975732421875,-0.013049489341388266,0.34194988396617415,1.5592808182413938,4.6894482421875,-3.53744384765625,1.197509765625,0.25086977468546423,-1.1582087580754605,-1.2567457184083923
1.83726,4.188889160156251,0.16046630859375,3.9637573242187503,0.32517196909867496,2.114816221631923,-0.681236606842269,6.212680664062501,0.01916015625,-0.3688330078125,0.06151902118083039,0.33289513625990474,1.4543522712922718,4.5649072265625,-3.59971435546875,1.3268408203125002,0.3246393368806591,-1.111070806781058,-1.180845627341134
1.843084,4.016447753906251,0.18681152343750002,3.9541772460937503,0.3315635557148651,2.0040287202846265,-0.6404902421640567,6.1360400390625,0.026345214843750003,-0.31853759765625,0.13129384174090641,0.3177151180464531,1.352086885433229,4.52898193359375,-3.5398388671875,1.36755615234375,0.38456046140744193,-1.0825749831172102,-1.1100055423450264
1.848888,3.8248461914062504,0.21555175781250002,3.9014868164062504,0.31638353750141346,1.8785938329418943,-0.5952165036327096,6.0881396484375,0.052690429687500005,-0.258662109375,0.16618125202094444,0.2918824554726845,1.2586099311714478,4.46671142578125,-3.4823583984375004,1.47533203125,0.41332260118029773,-1.037567560694871,-1.0458233600741167
1.854696,3.75299560546875,0.24908203125,3.8943017578125003,0.2868224494015339,1.7587515838883288,-0.5475459201202914,6.006708984375,-0.01916015625,-0.25387207031250003,0.21571604829641827,0.2777677016952645,1.177916150142047,4.41881103515625,-3.36979248046875,1.49209716796875,0.42024682001450375,-0.9978864604526905,-0.9962885637986428
1.860512,3.6907250976562502,0.29458740234375,3.8511914062500003,0.2556634646476068,1.6402409153798025,-0.4908205889016035,5.8630078125,-0.07424560546875,-0.17962646484375,0.23995081421613934,0.25246767133951176,1.0998855302027253,4.3541455078125,-3.266806640625,1.53520751953125,0.41172470452625015,-0.9483516641772166,-0.9414274453430106
1.866312,3.5182836914062503,0.34727783203125,3.8464013671875,0.20586235226312508,1.5294534140325062,-0.4399542120810901,5.786367187500001,-0.00718505859375,-0.22273681640625,0.24474450417828195,0.22663500876574313,1.009604369249039,4.3301953125,-3.18777099609375,1.4897021484375002,0.4308994643748207,-0.8988168679017428,-0.8966863390296794
1.872128,3.36979248046875,0.34248779296875004,3.83921630859375,0.15659387209665918,1.4168016999221544,-0.38908783526057666,5.6785913085937505,0.00239501953125,-0.2347119140625,0.24687503305034536,0.18056232190737231,0.9358348070538441,4.31103515625,-3.1159204101562503,1.4226416015625,0.47324372570708056,-0.8516789166073403,-0.8522115488253561
1.877944,3.25004150390625,0.354462890625,3.8679565429687504,0.10945592080225668,1.2945626058875175,-0.34887410280038017,5.640270996093751,0.03113525390625,-0.27303222656250004,0.23675502090804423,0.13555489948503321,0.8727178892189662,4.35175048828125,-3.08478515625,1.26217529296875,0.5155879870393405,-0.8261125701425795,-0.8101336036021042
1.883772,3.18777099609375,0.3496728515625,3.994892578125,0.05965480841777493,1.177383517924031,-0.31664985361042136,5.6187158203125005,-0.02155517578125,-0.3065625,0.22583606043871937,0.12250541014364494,0.8237157251615083,4.3948608398437505,-3.0512548828125,1.1951147460937501,0.5717806860400123,-0.7749798772130582,-0.7680556583788521
1.889584,3.266806640625,0.33290771484375004,4.071533203125,0.03302319751698255,1.0950918402405827,-0.29640982932581916,5.5923706054687505,-0.076640625,-0.28500732421875,0.2295644859648303,0.12436962290670041,0.7637946006347254,4.39007080078125,-3.0320947265625002,1.1567944335937501,0.6064017802110424,-0.7331682480988142,-0.7400924669330202
1.895392,3.2452514648437503,0.3592529296875,4.0667431640625,0.011451592687340723,1.0388991412399107,-0.2972087776528429,5.5253100585937505,-0.13412109375,-0.31374755859375003,0.24394555585125818,0.11904330072654193,0.712928223814212,4.5146118164062505,-2.998564453125,1.1543994140625,0.6194512695524307,-0.6633934275387382,-0.7070692694160376
1.901212,3.21651123046875,0.42870849609375,4.14577880859375,-0.0034621094171030094,1.0042780470688806,-0.30546457703208857,5.4750146484375,-0.06945556640625,-0.28979736328125,0.23995081421613934,0.09187905760773371,0.663926059756754,4.45234130859375,-2.93150390625,1.1352392578125001,0.6261091722776289,-0.5739112149120758,-0.677774497425166
1.907024,3.18298095703125,0.4550537109375,4.188889160156251,-0.033289513625990474,0.9731190623149535,-0.3009372031789539,5.43429931640625,-0.0047900390625,-0.30177246093750004,0.1925465468127289,0.04713795129440251,0.6197175856614386,4.44276123046875,-2.8859985351562503,1.1088940429687502,0.6167881084623514,-0.5038700782429918,-0.6503439381973499
1.912848,3.21651123046875,0.46223876953125004,4.1553588867187505,-0.03701793915210141,0.9518137735943196,-0.2988066743068905,5.68338134765625,-0.03113525390625,-0.33769775390625,0.1323591061769381,0.03462109417103009,0.5669869960778697,4.397255859375,-2.8500732421875004,1.14242431640625,0.5992112452678285,-0.47004793239898546,-0.6151902118083039
1.91866,3.1925610351562503,0.3688330078125,4.243974609375,-0.014381069886427884,0.9326390137457491,-0.293480352126732,5.71691162109375,-0.086220703125,-0.3113525390625,0.07430219441321073,0.046072686858370814,0.5044027104610076,4.315825195312501,-2.84767822265625,1.1136840820312501,0.5656554155328302,-0.4490089597873595,-0.5608617255706875
1.924472,3.13987060546875,0.335302734375,4.188889160156251,0.04287689355027573,0.8934905457215843,-0.28708876551054185,5.61392578125,-0.19639160156250002,-0.316142578125,0.011451592687340723,0.0604537567447987,0.44048684429910595,4.308640136718751,-2.86683837890625,1.13284423828125,0.5390238046320377,-0.4561994947305734,-0.4937500661006907
1.930296,3.03448974609375,0.3065625,4.1817041015625005,0.10226538585904274,0.8596683998775779,-0.2806971788943517,5.566025390625001,-0.2682421875,-0.24668701171875002,-0.014647385995435807,0.05885586009075116,0.37097833984803785,4.29427001953125,-2.8309130859375,1.1352392578125001,0.5334311663428714,-0.4380899993180346,-0.4245078777586305
1.936104,2.93868896484375,0.40954833984375,4.167333984375,0.14594122773634224,0.8008125397868269,-0.26178873515478907,5.5253100585937505,-0.335302734375,-0.24908203125,-0.009587379924285256,0.05779059565471946,0.30546457703208857,4.2870849609375,-2.806962890625,1.20948486328125,0.5182511481294196,-0.4130562850712898,-0.36218990825077635
1.941916,2.8404931640625,0.47181884765625004,4.06434814453125,0.1568601882056671,0.723314552065521,-0.23782028534407593,5.527705078125,-0.32811767578125,-0.17244140625,-0.0034621094171030094,0.06231796950785416,0.24607608472332157,4.31343017578125,-2.7159521484375,1.2214599609375,0.4727110934890647,-0.377369926464228,-0.3043993125960569
1.947748,2.77822265625,0.53887939453125,4.109853515625,0.14034858944717585,0.6399576099460409,-0.22024342214955298,5.55405029296875,-0.3592529296875,-0.16046630859375,-0.007190534943213942,0.06151902118083039,0.19014970183165758,4.243974609375,-2.6033862304687503,1.2789404296875,0.37364150093811704,-0.32756881407974625,-0.26924558620701095
1.95356,2.84767822265625,0.54366943359375,4.07871826171875,0.11504855909142307,0.5510080295373944,-0.18748654074157833,5.59716064453125,-0.30895751953125,-0.12214599609375,-0.01970739206658636,0.05992112452678285,0.12836436454181926,4.2152343750000005,-2.5339306640625003,1.29091552734375,0.2428802914152265,-0.2841592883114547,-0.2362223886900284
1.959368,2.86204833984375,0.5245092773437501,4.0859033203125,0.08442220655551184,0.4713795129440251,-0.16831178089300783,5.61153076171875,-0.26105712890625,-0.15567626953125,-0.02609897868277653,0.0380832035881331,0.060986388962814546,4.22720947265625,-2.5171655273437503,1.31965576171875,0.1086569724752329,-0.25779399351967025,-0.19441075957578435
1.965184,2.93150390625,0.5029541015625,4.10745849609375,0.04687163518539458,0.3928162607866876,-0.14860438882642146,5.661826171875,-0.19399658203125,-0.13172607421875002,-0.043675841877299504,0.013582121559404112,-0.011717908796348646,4.28468994140625,-2.5099804687500002,1.312470703125,-0.01757686319452297,-0.2183792093864975,-0.146740176063366
1.970996,2.9458740234375003,0.47900390625,4.109853515625,0.017310547085515045,0.30626352535911233,-0.13156015784991434,5.7719970703125005,-0.143701171875,-0.18202148437500001,-0.05432848623761645,-0.027696875336824075,-0.10572749527614574,4.34696044921875,-2.6129663085937502,1.3412109375,-0.10972223691126459,-0.1669802003479682,-0.09614011535186048
1.976804,2.9722192382812502,0.488583984375,4.1721240234375,-0.004527373853134705,0.21571604829641827,-0.11424961076439931,5.88216796875,-0.15567626953125,-0.25147705078125,-0.056725331218687766,-0.07563377495825035,-0.20453077171808548,4.44276123046875,-2.7446923828125,1.32444580078125,-0.1691107292200316,-0.10546117916713782,-0.041012680787220264
1.98262,3.113525390625,0.469423828125,4.196074218750001,-0.04048004856920442,0.1275654162147955,-0.10439591473110613,5.9180932617187505,-0.21794677734375,-0.21076171875000002,-0.03195793308095085,-0.09480853480682087,-0.3134540603023263,4.50024169921875,-2.86204833984375,1.2789404296875,-0.20666130059014887,-0.05459480234662437,0.010918960469324876
1.988444,3.1686108398437502,0.4358935546875,4.1529638671875,-0.07297061386817112,0.041811629114244034,-0.09587379924285257,5.992338867187501,-0.239501953125,-0.29458740234375,0.010120012142301104,-0.10918960469324875,-0.43382894157390783,4.461921386718751,-2.90515869140625,1.33402587890625,-0.21438446775137865,0.005060006071150552,0.06285060172587001
1.994252,3.2572265625,0.40475830078125,4.09308837890625,-0.10226538585904274,-0.05699164732769569,-0.08309062601047222,6.085744628906251,-0.22513183593750002,-0.24908203125,0.010918960469324876,-0.13076120952289058,-0.5515406617554102,4.42599609375,-3.00095947265625,1.3531860351562501,-0.20959077778923602,0.05965480841777493,0.11558119130943892
2.00006,3.31470703125,0.4263134765625,4.14098876953125,-0.12117382959860531,-0.15206649824352447,-0.061785337289838316,6.20070556640625,-0.16046630859375,-0.26584716796875,-0.042610577441267804,-0.1624528264948335,-0.7033408438899267,4.40444091796875,-3.0608349609375,1.4609619140625,-0.24101607865217103,0.08016114881138506,0.17283915474614253
2.00588,3.3889526367187504,0.38080810546875005,4.0859033203125,-0.13156015784991434,-0.26152241904578116,-0.020772656502618055,6.2893212890625,-0.15088623046875002,-0.28979736328125,-0.07510114274023451,-0.18668759241455457,-0.8484831232992451,4.45713134765625,-3.171005859375,1.504072265625,-0.32517196909867496,0.09906959255094765,0.22237395102161636
2.011688,3.5087036132812504,0.37601806640625,4.1002734375,-0.12996226119586682,-0.38802257082454494,0.012516857123372417,6.2701611328125,-0.04071533203125,-0.34248779296875004,-0.11877698461753401,-0.18748654074157833,-0.9920275060545161,4.47150146484375,-3.25483154296875,1.51365234375,-0.4000067957299015,0.12170646181662118,0.2924150876907003
2.0175,3.6380346679687503,0.3975732421875,4.08111328125,-0.146740176063366,-0.5038700782429918,0.036751623043093484,6.21986572265625,0.09340576171875001,-0.42152343750000004,-0.1802960057983644,-0.18082863801638024,-1.1100055423450264,4.4834765625,-3.3386572265625003,1.5280224609375002,-0.42823630328474144,0.16165387816780974,0.3571299021796258
