Header,foot_Accel_X,foot_Accel_Y,foot_Accel_Z,foot_Gyro_X,foot_Gyro_Y,foot_Gyro_Z,shank_Accel_X,shank_Accel_Y,shank_Accel_Z,shank_Gyro_X,shank_Gyro_Y,shank_Gyro_Z,thigh_Accel_X,thigh_Accel_Y,thigh_Accel_Z,thigh_Gyro_X,thigh_Gyro_Y,thigh_Gyro_Z
0.005776,2.70397705078125,0.34727783203125,3.7673657226562502,-0.11664645574547061,0.05273058958356891,0.031425300862935004,4.59125244140625,1.47533203125,-0.35206787109375004,0.37683729424621215,-0.49907638828084916,0.12889699675983513,4.857099609375,-0.37122802734375004,-0.1772314453125,0.09720537978789218,-0.6223807467515179,0.3976099507488302
0.011576,2.6536816406250003,0.37122802734375004,3.74341552734375,-0.11664645574547061,0.056725331218687766,0.03195793308095085,4.548142089843751,1.40587646484375,-0.35685791015625,0.3416835678571662,-0.4998753366078729,0.14594122773634224,4.9289501953125,-0.45984375,-0.0814306640625,0.06870955612404434,-0.558997512807632,0.37657097813720425
0.017392,2.6129663085937502,0.32572265625,3.75299560546875,-0.13289173839495397,0.05805691176372738,0.03169161697194293,4.5601171875,1.3483959960937502,-0.28740234375,0.33635724567700775,-0.5001416527168808,0.17097494198308708,4.847519531250001,-0.52929931640625,-0.00239501953125,0.10998855302027252,-0.5432848623761645,0.36565201766787936
0.023212,2.6464965820312503,0.3209326171875,3.7601806640625,-0.13342437061296983,0.057524279545711536,0.0335558297349984,4.5409570312500005,1.32205078125,-0.2682421875,0.36192359214176845,-0.5155879870393405,0.18375811521546742,4.89302490234375,-0.6083349609375001,-0.08382568359375,0.17310547085515046,-0.5422195979401329,0.34940673501839603
0.029024,2.6464965820312503,0.2682421875,3.7841308593750003,-0.14594122773634224,0.05779059565471946,0.03728425526110933,4.581672363281251,1.31965576171875,-0.36164794921875004,0.3962783702037906,-0.5222458897645386,0.19387812735776852,4.854704589843751,-0.536484375,-0.15567626953125,0.2530003035575276,-0.524110102527594,0.3430151484022058
0.034848,2.62733642578125,0.277822265625,3.6715649414062503,-0.13821806057511243,0.05858954398174323,0.03621899082507764,4.57927734375,1.29091552734375,-0.42152343750000004,0.41864892336045617,-0.5371595918689823,0.20240024284602207,4.81159423828125,-0.5221142578125,-0.15088623046875002,0.28602350107451013,-0.5211806253285068,0.3304982912788334
0.04066,2.6201513671875003,0.277822265625,3.72904541015625,-0.14514227940931845,0.05299690569257683,0.04980111238448175,4.5074267578125005,1.2885205078125002,-0.39996826171875,0.447144747024304,-0.5384911724140219,0.21411815164237072,4.73016357421875,-0.48139892578125004,-0.1484912109375,0.30200246761498556,-0.55926382891664,0.3102582669942312
0.046488,2.6201513671875003,0.21794677734375,3.6835400390625,-0.14647385995435808,0.05219795736555306,0.04420847409531535,4.5265869140625,1.28373046875,-0.45744873046875,0.48203215730434207,-0.5430185462671566,0.23755396923506802,4.68226318359375,-0.42870849609375,-0.15328125,0.32517196909867496,-0.6309028622397714,0.29827404208887465
0.052304,2.6680517578125,0.23710693359375,3.7146752929687503,-0.15180018213451657,0.05113269292952137,0.04660531907638666,4.53856201171875,1.3747412109375001,-0.47900390625,0.49348374999168276,-0.5438174945941804,0.24714134915935326,4.667893066406251,-0.40236328125000004,-0.22513183593750002,0.39015309969660833,-0.681502922951277,0.29081719103665277
0.058112,2.6776318359375,0.29219238281250004,3.745810546875,-0.1645833553668969,0.0537958540196006,0.05219795736555306,4.53377197265625,1.427431640625,-0.488583984375,0.5142564064943008,-0.5456817073572359,0.2769687533682407,4.7373486328125,-0.3400927734375,-0.25626708984375,0.4455468503702565,-0.7310377192267508,0.286556133292526
0.063928,2.7231372070312503,0.296982421875,3.7506005859375002,-0.17177389031011084,0.07323692997717904,0.055926382891663996,4.5170068359375,1.4681469726562502,-0.51732421875,0.5057342910060473,-0.5573996161535845,0.3022687837239935,4.80201416015625,-0.33769775390625,-0.33290771484375004,0.45726475916660514,-0.7597998589996066,0.26152241904578116
0.069736,2.6800268554687503,0.3113525390625,3.726650390625,-0.17417073529118215,0.08149272935642468,0.05139900903852929,4.50982177734375,1.50167724609375,-0.51971923828125,0.4793689962142628,-0.5502090812103705,0.32437302077165114,4.7469287109375005,-0.37362304687500003,-0.38080810546875005,0.4556668625125576,-0.8010788558958347,0.23915186588911555
0.075544,2.7327172851562502,0.29219238281250004,3.75299560546875,-0.1890844373956259,0.09480853480682087,0.0604537567447987,4.5601171875,1.4705419921875,-0.58198974609375,0.46072686858370815,-0.5376922240869981,0.3629888565778001,4.74932373046875,-0.43110351562500004,-0.42152343750000004,0.485760582830453,-0.8527441810433719,0.21758026105947373
0.081356,2.7159521484375,0.21555175781250002,3.7506005859375002,-0.1970739206658636,0.10466223084011404,0.05645901510967984,4.53856201171875,1.44419677734375,-0.5508544921875,0.46259108134676363,-0.5275722119446971,0.37497308148315667,4.8331494140625,-0.45026367187500005,-0.49337402343750003,0.5294364247077524,-0.8399610078109916,0.18322548299745156
0.087172,2.7135571289062503,0.20597167968750002,3.7410205078125003,-0.18988338572264965,0.11744540407249439,0.057524279545711536,4.5601171875,1.3962963867187501,-0.59156982421875,0.4817658411953341,-0.5214469414375148,0.3941478413317272,4.857099609375,-0.53887939453125,-0.5412744140625,0.5400890690680694,-0.8021441203318664,0.1568601882056671
0.092992,2.6872119140625,0.239501953125,3.73623046875,-0.18429074743348325,0.11957593294455778,0.060986388962814546,4.581672363281251,1.3939013671875,-0.67300048828125,0.5057342910060473,-0.5217132575465226,0.40772996289113134,4.80919921875,-0.6849755859375001,-0.52929931640625,0.5643238349877905,-0.7920241081895654,0.12170646181662118
0.098808,2.6536816406250003,0.24189697265625001,3.745810546875,-0.19414444346677645,0.12729910010578757,0.05992112452678285,4.6319677734375,1.3460009765625,-0.67300048828125,0.5046690265700156,-0.5195827286744593,0.4301005160477969,4.81638427734375,-0.8190966796875,-0.55324951171875,0.6042712513389791,-0.7680556583788521,0.09054747706269409
0.104624,2.62494140625,0.21076171875000002,3.7697607421875,-0.1904160179406655,0.1267664678877717,0.06524744670694133,4.61041259765625,1.2334350585937501,-0.6370751953125,0.5060006071150552,-0.513723774276285,0.4492752758963674,4.794829101562501,-0.87897216796875,-0.53887939453125,0.6407565582730647,-0.7496798468573055,0.06364955005289379
0.110452,2.62494140625,0.17244140625,3.7122802734375,-0.1869539085235625,0.11664645574547061,0.07376956219519488,4.59604248046875,1.20948486328125,-0.59396484375,0.5235774703095781,-0.4929511177736669,0.45513423029454175,4.727768554687501,-0.9340576171875,-0.54366943359375,0.6862966129134196,-0.7459514213311945,0.05113269292952137
0.11626,2.634521484375,0.19639160156250002,3.7601806640625,-0.18935075350463382,0.10918960469324875,0.07270429775916319,4.648732910156251,1.1543994140625,-0.5676196289062501,0.54514907513922,-0.48629321504846884,0.46765108741791417,4.675078125000001,-0.929267578125,-0.45984375,0.7225156037384972,-0.7637946006347254,0.039148468024164794
0.122072,2.596201171875,0.19878662109375,3.73383544921875,-0.19174759848570513,0.10812434025721705,0.07297061386817112,4.61041259765625,1.0346484375,-0.65384033203125,0.569650157167949,-0.48655953115747674,0.46605319076386664,4.60562255859375,-0.9580078125,-0.5053491210937501,0.7925567404075812,-0.7787083027391691,0.034887410280038014
0.127888,2.5770410156250003,0.1676513671875,3.7410205078125003,-0.18375811521546742,0.10226538585904274,0.07510114274023451,4.608017578125001,0.93166259765625,-0.641865234375,0.6048038835569949,-0.47537425457914395,0.45540054640354966,4.57688232421875,-0.9627978515625001,-0.4981640625,0.8756473664180534,-0.7733819805590106,0.025566346464760685
0.1337,2.6105712890625,0.1676513671875,3.74341552734375,-0.1824265346704278,0.10812434025721705,0.07882956826634543,4.6223876953125,0.9077124023437501,-0.71611083984375,0.6705839624819521,-0.46312371356477944,0.4455468503702565,4.58646240234375,-0.9627978515625001,-0.5053491210937501,0.9693906367888425,-0.7499461629663133,0.03036003642690331
0.139504,2.6297314453125002,0.1389111328125,3.7673657226562502,-0.17470336750919802,0.10546117916713782,0.08229167768344844,4.5673022460937505,0.910107421875,-0.73527099609375,0.7259777131556002,-0.4617921330197398,0.4450142181522406,4.521796875000001,-1.00351318359375,-0.5221142578125,1.005875943722928,-0.7731156644500028,0.03169161697194293
0.14532,2.6033862304687503,0.1197509765625,3.745810546875,-0.16964336143804745,0.10599381138515367,0.0639158661619017,4.548142089843751,0.8837622070312501,-0.7855664062500001,0.7792409349571849,-0.46445529410981906,0.4346278899009316,4.5146118164062505,-1.0681787109375,-0.5484594726562501,1.0418286184389978,-0.7699198711419076,0.037550571370117254
0.151144,2.57943603515625,0.11735595703125,3.81526611328125,-0.1568601882056671,0.11238539800134384,0.055127434564640226,4.6343627929687505,0.8622070312500001,-0.8478369140625001,0.8018778042228585,-0.45486791418553385,0.4412857926261297,4.4691064453125,-1.0346484375,-0.61072998046875,1.0799118220271309,-0.7811051477202404,0.03302319751698255
0.156952,2.5938061523437503,0.10777587890625001,3.7985009765625004,-0.14540859551832638,0.10359696640408235,0.04820321573043421,4.63915283203125,0.8430468750000001,-0.81191162109375,0.824514673488532,-0.4322310449198603,0.42637209052168595,4.473896484375,-1.025068359375,-0.62031005859375,1.128381353866573,-0.7843009410283356,0.043409525768291574
0.162776,2.6201513671875003,0.06945556640625,3.8104760742187502,-0.12303804236166078,0.10599381138515367,0.03515372638904594,4.58646240234375,0.852626953125,-0.8765771484375,0.870054728128887,-0.4143878656163294,0.42583945830367015,4.47150146484375,-1.0370434570312501,-0.69216064453125,1.1558119130943891,-0.7962851659336921,0.05033374460249759
0.168596,2.6488916015625,0.06945556640625,3.7649707031250004,-0.12037488127158155,0.10066748920499519,0.019174759848570512,4.58646240234375,0.871787109375,-0.8646020507812501,0.9123989894611468,-0.41518681394335316,0.41492049783434526,4.54335205078125,-1.0298583984375,-0.69216064453125,1.1510182231322466,-0.8029430686588902,0.05193164125654514
0.174404,2.60817626953125,0.13172607421875002,3.822451171875,-0.10093380531400312,0.09507485091582879,0.015712650431467502,4.62957275390625,0.9651928710937501,-0.9723779296875,0.9496832447222562,-0.4101268078722026,0.40480048569204413,4.581672363281251,-1.07296875,-0.680185546875,1.1646003446916506,-0.8162588741092864,0.052464273474560986
0.180236,2.56506591796875,0.11017089843750001,3.7386254882812504,-0.08575378710055145,0.09054747706269409,0.0066579027251980945,4.675078125000001,0.9723779296875,-0.9915380859375,0.9491506125042404,-0.40932785954517886,0.38589204195248156,4.61999267578125,-1.08494384765625,-0.7065307617187501,1.1920309039194668,-0.7813714638292484,0.05432848623761645
0.18604,2.5722509765625,0.08861572265625,3.77694580078125,-0.07483482663122658,0.08309062601047222,0.0029294771990871615,4.67747314453125,0.929267578125,-1.02746337890625,0.9369000714898759,-0.3864246741704974,0.3888215191515687,4.57927734375,-1.08015380859375,-0.69216064453125,1.2311793719436317,-0.754739852928456,0.06684534336098887
0.191852,2.5770410156250003,0.1197509765625,3.755390625,-0.06444849837991756,0.06471481448892548,-0.011984224905356571,4.64394287109375,0.929267578125,-0.9723779296875,0.9390306003619393,-0.35686358607061786,0.39334889300470344,4.5649072265625,-1.07296875,-0.69216064453125,1.2362393780147822,-0.7683219744878601,0.07137271721412357
0.197676,2.5938061523437503,0.15088623046875002,3.7601806640625,-0.05432848623761645,0.04500742242233912,-0.02024002428460221,4.6367578125,1.005908203125,-0.96998291015625,0.9179916277503133,-0.35286884443549904,0.39494678965875096,4.6128076171875,-1.025068359375,-0.63947021484375,1.2173309342752197,-0.7675230261608363,0.07669903939428205
0.203488,2.6297314453125002,0.18681152343750002,3.8104760742187502,-0.06285060172587001,0.041811629114244034,-0.01890844373956259,4.65352294921875,1.101708984375,-0.8765771484375,0.8737831536549979,-0.34541199338327716,0.39148468024164795,4.588857421875001,-1.0394384765625,-0.63228515625,1.2205267275833147,-0.7595335428905986,0.07669903939428205
0.209308,2.6393115234375,0.18920654296875,3.7817358398437504,-0.0604537567447987,0.04154531300523611,-0.022903185374681445,4.63915283203125,1.0873388671875,-0.8669970703125001,0.8205199318534132,-0.33635724567700775,0.37124465595704575,4.55772216796875,-1.02746337890625,-0.65384033203125,1.2221246242373622,-0.7496798468573055,0.07350324608618697
0.215132,2.61775634765625,0.19399658203125,3.77694580078125,-0.05619269900067192,0.042610577441267804,-0.0111852765783328,4.6607080078125005,1.0538085937500001,-0.89334228515625,0.7914914759715495,-0.321443543572564,0.36991307541200613,4.54335205078125,-0.96998291015625,-0.61072998046875,1.2106730315500216,-0.7459514213311945,0.0705737688870998
0.220944,2.59859619140625,0.18920654296875,3.8008959960937503,-0.056725331218687766,0.04314320965928365,-0.012783173232380343,4.648732910156251,1.00351318359375,-0.89334228515625,0.7789746188481771,-0.2998719387429222,0.3629888565778001,4.54335205078125,-0.8861572265625001,-0.6059399414062501,1.1542140164403416,-0.7278419259186557,0.06072007285380662
0.226752,2.60578125,0.16046630859375,3.77694580078125,-0.05033374460249759,0.03621899082507764,-0.01757686319452297,4.6343627929687505,0.97716796875,-0.8669970703125001,0.7866977860094069,-0.30067088706994594,0.35526568941657033,4.581672363281251,-0.8646020507812501,-0.5843847656250001,1.1001518463117332,-0.6969492572737366,0.054062170128608526
0.232564,2.56506591796875,0.17244140625,3.803291015625,-0.04394215798630743,0.03222424918995878,-0.02450108202872899,4.648732910156251,0.9651928710937501,-0.9412426757812501,0.7837683088103197,-0.28575718496550223,0.3414172517481583,4.59604248046875,-0.85981201171875,-0.5700146484375,1.0335728190597522,-0.6820355551692928,0.04767058351241836
0.238376,2.5626708984375,0.12214599609375,3.77215576171875,-0.04074636467821234,0.018642127630554665,-0.034088461953014244,4.66310302734375,0.9148974609375,-1.00351318359375,0.800013591459803,-0.2684466378799872,0.3520698961084752,4.615202636718751,-0.83586181640625,-0.5795947265625,1.0045443631778885,-0.6519418348513975,0.04580637074936289
0.244184,2.5339306640625003,0.1197509765625,3.77215576171875,-0.0223705531566656,0.0077231671612297895,-0.03888215191515687,4.608017578125001,0.85023193359375,-0.9651928710937501,0.803742016985914,-0.26711505733494756,0.3472762061463326,4.675078125000001,-0.8095166015625,-0.6035449218750001,0.9515474574853117,-0.6138586312632643,0.052464273474560986
0.249992,2.56506591796875,0.13651611328125002,3.79610595703125,-0.015446334322459579,-0.005060006071150552,-0.036751623043093484,4.5936474609375,0.93166259765625,-0.9148974609375,0.7949535853886525,-0.27616980504121696,0.34088461953014243,4.6343627929687505,-0.8430468750000001,-0.6562353515625,0.9006810806647982,-0.5994775613768364,0.05805691176372738
0.255804,2.60817626953125,0.18920654296875,3.7410205078125003,-0.015978966540475426,0.0015978966540475428,-0.04740426740341044,4.665498046875,1.0921289062500001,-0.9077124023437501,0.7558051173644877,-0.2878877138375656,0.3414172517481583,4.65591796875,-0.9148974609375,-0.71132080078125,0.8285094151236508,-0.5608617255706875,0.04580637074936289
0.261608,2.60578125,0.21076171875000002,3.7913159179687503,-0.005060006071150552,-0.015180018213451656,-0.04740426740341044,4.701423339843751,1.101708984375,-0.96998291015625,0.7017429472358792,-0.2889529782735973,0.32384038855363534,4.67268310546875,-0.9604028320312501,-0.737666015625,0.7808388316112326,-0.5326322180158476,0.03462109417103009
0.26742,2.55548583984375,0.124541015625,3.8104760742187502,-0.0053263221801584755,-0.02024002428460221,-0.04740426740341044,4.703818359375,1.04183349609375,-1.05620361328125,0.6444849837991755,-0.26684874122593966,0.3158509052833976,4.615202636718751,-0.996328125,-0.6849755859375001,0.7518103757293688,-0.5225122058735464,0.043409525768291574
0.273248,2.5435107421875003,0.09580078125000001,3.7913159179687503,0.019174759848570512,-0.043409525768291574,-0.06338323394388586,4.703818359375,0.9460327148437501,-1.1567944335937501,0.6412891904910805,-0.23036343429185407,0.3190466985914927,4.6343627929687505,-0.9651928710937501,-0.74006103515625,0.7467503696582183,-0.4985437560628333,0.0492684801664659
0.279056,2.5243505859375,0.1149609375,3.8344262695312503,0.03382214584400632,-0.06285060172587001,-0.08255799379245637,4.6894482421875,0.89813232421875,-1.20469482421875,0.6556702603775083,-0.21411815164237072,0.3358246134589919,4.6271777343750005,-0.89334228515625,-0.77359130859375,0.7358314091888934,-0.48229847341334997,0.05539375067364815
0.284872,2.5147705078125,0.09101074218750001,3.80568603515625,0.0447411063133312,-0.09427590258880501,-0.09587379924285257,4.64394287109375,0.89334228515625,-1.1352392578125001,0.6056028318840186,-0.20532972004510924,0.331829871823873,4.62478271484375,-0.871787109375,-0.833466796875,0.6889597740034988,-0.47297740959807266,0.05086637682051344
0.290688,2.62494140625,0.1149609375,3.7601806640625,0.06817692390602849,-0.08921589651765446,-0.09587379924285257,4.65591796875,0.95082275390625,-1.082548828125,0.5600627772436637,-0.17443705140019009,0.34967305112740393,4.608017578125001,-0.929267578125,-0.890947265625,0.6543386798324687,-0.46099318469271605,0.043675841877299504
0.2965,2.60817626953125,0.16525634765625,3.7170703125,0.08282430990146429,-0.09773801200590802,-0.12010856516257362,4.6367578125,0.9220825195312501,-1.063388671875,0.558997512807632,-0.13342437061296983,0.3526025283264911,4.6128076171875,-0.9843530273437501,-0.8622070312500001,0.643153403254136,-0.46978161628997755,0.03728425526110933
0.302312,2.5722509765625,0.15567626953125,3.7601806640625,0.10199906975003481,-0.10120012142301103,-0.14247911831923923,4.66310302734375,0.91250244140625,-1.09452392578125,0.5403553851770774,-0.10093380531400312,0.3549993733075624,4.6008325195312505,-0.9795629882812501,-0.8957373046875,0.6474144609982627,-0.4593952880386685,0.0335558297349984
0.308128,2.596201171875,0.124541015625,3.7913159179687503,0.10546117916713782,-0.11345066243737553,-0.13448963504900152,4.63915283203125,0.83107177734375,-1.05141357421875,0.5142564064943008,-0.07403587830420282,0.3504719994544277,4.6223876953125,-1.04662353515625,-0.8861572265625001,0.6705839624819521,-0.4564658108395814,0.028495823663847845
0.313928,2.65128662109375,0.1484912109375,3.8344262695312503,0.1131843463283676,-0.11398329465539138,-0.12836436454181926,4.66310302734375,0.81191162109375,-0.9651928710937501,0.5001416527168808,-0.04074636467821234,0.34194988396617415,4.61041259765625,-1.063388671875,-0.9196875,0.7235808681745289,-0.4535363336404942,0.014913702104443732
0.319744,2.70158203125,0.21794677734375,3.74341552734375,0.1163801396364627,-0.10093380531400312,-0.13954964112015206,4.6319677734375,0.8478369140625001,-0.9244775390625001,0.5142564064943008,-0.019174759848570512,0.3411509356391504,4.6319677734375,-1.082548828125,-0.9460327148437501,0.7568703818005194,-0.46392266189180326,0.0055926382891664
0.325568,2.6536816406250003,0.19639160156250002,3.78652587890625,0.10572749527614574,-0.08761799986360692,-0.12037488127158155,4.5984375,0.93166259765625,-0.8837622070312501,0.5275722119446971,-0.03169161697194293,0.32863407851577797,4.64394287109375,-1.063388671875,-0.88855224609375,0.7755125094310741,-0.4524710692044625,-0.009587379924285256
0.331388,2.6536816406250003,0.19399658203125,3.7985009765625004,0.10146643753201896,-0.0806937810294009,-0.11025486912928045,4.648732910156251,0.9867480468750001,-0.8957373046875,0.5363606435419584,-0.03542004249805386,0.3193130147005006,4.61759765625,-1.09931396484375,-0.9148974609375,0.821318880180437,-0.4468784309152961,-0.021837920938649752
0.337196,2.5866210937500003,0.20836669921875,3.7817358398437504,0.10253170196805066,-0.07749798772130582,-0.10386328251309028,4.67268310546875,0.9340576171875,-0.9627978515625001,0.5382248563050139,-0.0031957933080950856,0.3169161697194293,4.646337890625,-1.06578369140625,-0.88855224609375,0.8737831536549979,-0.4159857622703769,-0.02956108809987954
0.343016,2.6105712890625,0.18920654296875,3.803291015625,0.09986854087797142,-0.07323692997717904,-0.1030643341860665,4.66310302734375,0.9196875,-0.8574169921875,0.5310343213618001,0.0013315805450396189,0.3227751241176036,4.701423339843751,-0.9532177734375,-0.9053173828125001,0.9033442417548775,-0.4141215495073215,-0.052464273474560986
0.348828,2.692001953125,0.22513183593750002,3.7937109375,0.09614011535186048,-0.061785337289838316,-0.0940095864797971,4.6008325195312505,0.95561279296875,-0.9005273437500001,0.5448827590302121,-0.019973708175594285,0.3177151180464531,4.6990283203125,-0.79754150390625,-0.81191162109375,0.9150621505512261,-0.4069310145641075,-0.055926382891663996
0.35464,2.69439697265625,0.25387207031250003,3.7673657226562502,0.08309062601047222,-0.05858954398174323,-0.08868326429963862,4.615202636718751,1.0705737304687502,-0.929267578125,0.5621933061157272,-0.02316950148368937,0.3123887958662946,4.70621337890625,-0.7424560546875001,-0.9196875,0.8815063208162277,-0.4050668018010521,-0.07004113666908396
0.360464,2.6632617187500003,0.2442919921875,3.7817358398437504,0.0772316716122979,-0.05912217619975908,-0.08575378710055145,4.6511279296875,1.1064990234375,-1.0777587890625,0.5667206799688618,-0.023968449810713142,0.3259709174256987,4.684658203125,-0.74006103515625,-0.8646020507812501,0.8500810199532928,-0.3954794218767668,-0.08122641324741675
0.366276,2.7973828125,0.20118164062500002,3.8943017578125003,0.08761799986360692,-0.05299690569257683,-0.08255799379245637,4.703818359375,1.1639794921875,-0.96998291015625,0.506799555442079,-0.0029294771990871615,0.34248251618419,4.70621337890625,-0.7424560546875001,-0.8023315429687501,0.8482168071902373,-0.39867521518486193,-0.10093380531400312
0.372088,2.70876708984375,0.22752685546875,3.7386254882812504,0.06950850445106811,-0.0268979270098003,-0.08229167768344844,4.57688232421875,1.0777587890625,-0.9196875,0.46392266189180326,-0.0005326322180158476,0.3571299021796258,4.70621337890625,-0.67060546875,-0.7903564453125,0.8564726065694829,-0.4050668018010521,-0.10839065636622498
0.377912,2.70158203125,0.25387207031250003,3.7673657226562502,0.05273058958356891,-0.015712650431467502,-0.07536745884924242,4.6008325195312505,1.0585986328125,-0.87418212890625,0.43302999324688407,-0.012250541014364494,0.3629888565778001,4.708608398437501,-0.5987548828125,-0.77359130859375,0.8303736278867063,-0.4016046923839491,-0.11691277185447854
0.38372,2.64170654296875,0.27542724609375,3.79610595703125,0.040213732460196494,-0.00985369603329318,-0.06231796950785416,4.6008325195312505,1.11847412109375,-0.86939208984375,0.4119910206352581,-0.02902845588186369,0.3683151787579586,4.6990283203125,-0.65384033203125,-0.7807763671875,0.7984156948057555,-0.3869573063885133,-0.13129384174090641
0.38954,2.768642578125,0.28261230468750004,3.8703515625000002,0.04500742242233912,-0.0223705531566656,-0.05086637682051344,4.6511279296875,1.12326416015625,-0.9005273437500001,0.36591833377688726,-0.028762139772855768,0.38003308755430726,4.6894482421875,-0.6634204101562501,-0.7879614257812501,0.7856325215733752,-0.38775625471553704,-0.15073491769848485
0.39536,2.61775634765625,0.23710693359375,3.72904541015625,0.03222424918995878,-0.0015978966540475428,-0.04554005464035497,4.6343627929687505,1.0322534179687501,-0.8262817382812501,0.32863407851577797,-0.031425300862935004,0.37710361035522005,4.7205834960937505,-0.62031005859375,-0.7831713867187501,0.751544059620361,-0.3757720298101805,-0.15925703318673842
0.401172,2.64170654296875,0.2682421875,3.7673657226562502,0.023968449810713142,-0.0015978966540475428,-0.040213732460196494,4.6319677734375,1.005908203125,-0.8095166015625,0.3086603703401837,-0.029294771990871615,0.3920173124596638,4.7133984375,-0.641865234375,-0.7424560546875001,0.7241135003925447,-0.37683729424621215,-0.1778991608172931
0.406972,2.6105712890625,0.23710693359375,3.7314404296875003,0.02609897868277653,0.0007989483270237714,-0.04394215798630743,4.61999267578125,0.9651928710937501,-0.8238867187500001,0.29507824878077954,-0.046072686858370814,0.3960120540947827,4.69663330078125,-0.6059399414062501,-0.71611083984375,0.6886934578944909,-0.36964675930299823,-0.19014970183165758
0.412792,2.6129663085937502,0.22034179687500002,3.7506005859375002,0.019973708175594285,-0.0111852765783328,-0.04554005464035497,4.6128076171875,0.93645263671875,-0.9029223632812501,0.2854908688564943,-0.04580637074936289,0.40213732460196494,4.67747314453125,-0.57719970703125,-0.63947021484375,0.6266418044956447,-0.36911412708498237,-0.1970739206658636
0.4186,2.70158203125,0.30895751953125,3.7985009765625004,0.02370213370170522,0.007989483270237713,-0.03515372638904594,4.6319677734375,0.9580078125,-0.89334228515625,0.27297401173312186,-0.0639158661619017,0.40373522125601247,4.665498046875,-0.6562353515625,-0.7137158203125,0.5757754276751312,-0.38589204195248156,-0.2050634039361013
0.424412,2.5674609375,0.28979736328125,3.77215576171875,0.017044230976507122,-0.020506340393610132,-0.016245282649483352,4.66310302734375,0.9436376953125001,-0.8837622070312501,0.230629750400862,-0.08096009713840883,0.4071973306731155,4.68226318359375,-0.6514453125,-0.75443115234375,0.5510080295373944,-0.3864246741704974,-0.20692761669915677
0.430232,2.6704467773437504,0.25387207031250003,3.8440063476562503,0.0167779148674992,-0.0031957933080950856,-0.018642127630554665,4.665498046875,0.9723779296875,-0.8669970703125001,0.20799288113518846,-0.07909588437535336,0.4162520783793849,4.708608398437501,-0.65863037109375,-0.7855664062500001,0.5331648502338634,-0.3672499143219269,-0.21917815771352128
0.43604,2.682421875,0.23710693359375,3.7673657226562502,0.021305288720633902,0.0021305288720633903,-0.011451592687340723,4.581672363281251,0.9675878906250001,-0.95561279296875,0.1813612702343961,-0.07590009106725829,0.40932785954517886,4.6942382812500005,-0.65384033203125,-0.74964111328125,0.5222458897645386,-0.34967305112740393,-0.22690132487475106
0.441848,2.8213330078125,0.25147705078125,3.7793408203125,0.017044230976507122,0.0053263221801584755,-0.010918960469324876,4.59604248046875,0.9675878906250001,-0.8813671875000001,0.17044230976507121,-0.07376956219519488,0.4000067957299015,4.71100341796875,-0.63947021484375,-0.8095166015625,0.4777710995602153,-0.3323625040418889,-0.23329291149094122
0.447656,2.5339306640625003,0.24189697265625001,3.70988525390625,0.006125270507182247,0.0021305288720633903,-0.00985369603329318,4.62957275390625,0.9627978515625001,-0.95082275390625,0.1533980787885641,-0.08229167768344844,0.4034689051470045,4.69184326171875,-0.61552001953125,-0.83586181640625,0.4359594704459712,-0.3225088080085957,-0.24208134308820273
0.453472,2.634521484375,0.18202148437500001,3.77215576171875,0.0031957933080950856,0.011717908796348646,-0.0055926382891664,4.665498046875,0.9651928710937501,-1.02746337890625,0.0996022247689635,-0.0772316716122979,0.41492049783434526,4.6894482421875,-0.6466552734375001,-0.7879614257812501,0.40027311183890946,-0.31531827306538174,-0.23568975647201254
0.45928,2.6297314453125002,0.24189697265625001,3.745810546875,0.008522115488253561,0.006924218834206019,-0.0018642127630554665,4.615202636718751,0.948427734375,-0.93645263671875,0.03302319751698255,-0.07137271721412357,0.4210457683415275,4.6798681640625,-0.59156982421875,-0.7616162109375001,0.3648530693408556,-0.2977414098708588,-0.24794029748637705
0.465088,2.65607666015625,0.31853759765625,3.7482055664062504,0.0066579027251980945,0.018375811521546742,0.0034621094171030094,4.66310302734375,0.996328125,-0.9196875,-0.008255799379245638,-0.08255799379245637,0.42637209052168595,4.66310302734375,-0.6442602539062501,-0.7999365234375,0.3158509052833976,-0.28602350107451013,-0.258592941846694
0.470904,2.7399023437500003,0.22034179687500002,3.745810546875,-0.012250541014364494,0.039148468024164794,0.0111852765783328,4.646337890625,0.9460327148437501,-0.948427734375,-0.03595267471606971,-0.08575378710055145,0.43516052211894746,4.6367578125,-0.6658154296875001,-0.85502197265625,0.26365294791784455,-0.29854035819788255,-0.26684874122593966
0.476716,2.57464599609375,0.17244140625,3.8104760742187502,-0.00985369603329318,0.014381069886427884,0.007989483270237713,4.65591796875,0.890947265625,-0.9723779296875,-0.05619269900067192,-0.08335694211948015,0.43356262546489993,4.648732910156251,-0.74006103515625,-0.83107177734375,0.23382554370895708,-0.29614351321681126,-0.27110979897006643
0.48252,2.64170654296875,0.24908203125,3.79610595703125,-0.005858954398174323,0.0380832035881331,0.019973708175594285,4.61999267578125,0.8047265625000001,-0.93166259765625,-0.0705737688870998,-0.0884169481906307,0.4431500053891852,4.6343627929687505,-0.7280859375000001,-0.8813671875000001,0.2037318233910617,-0.28735508161954976,-0.2846919205294705
0.488336,2.6536816406250003,0.24908203125,3.7649707031250004,-0.00905474770626941,0.040213732460196494,0.017843179303530892,4.62478271484375,0.756826171875,-0.9532177734375,-0.07856325215733752,-0.0884169481906307,0.4343615737919237,4.61999267578125,-0.7711962890625,-0.8478369140625001,0.19467707568479228,-0.28762139772855766,-0.2884203460555815
0.494136,2.6201513671875003,0.25626708984375,3.7817358398437504,-0.013848437668412037,0.040213732460196494,0.013848437668412037,4.61759765625,0.69695068359375,-0.9627978515625001,-0.07190534943213941,-0.09720537978789218,0.43729105099101084,4.58646240234375,-0.7879614257812501,-0.8669970703125001,0.18216021856141987,-0.2953445648897875,-0.2846919205294705
0.499952,2.71834716796875,0.28261230468750004,3.7506005859375002,-0.030093720317895388,0.05539375067364815,0.019973708175594285,4.615202636718751,0.6634204101562501,-0.9627978515625001,-0.06764429168801264,-0.08522115488253561,0.41838260725144827,4.588857421875001,-0.85981201171875,-0.871787109375,0.18562232797852288,-0.2806971788943517,-0.28362665609343884
0.505768,2.5339306640625003,0.21555175781250002,3.7745507812500003,-0.03222424918995878,0.017310547085515045,0.020772656502618055,4.6367578125,0.62031005859375,-0.95561279296875,-0.029294771990871615,-0.07643272328527413,0.41172470452625015,4.6128076171875,-0.8861572265625001,-0.8238867187500001,0.17763284470828516,-0.2609897868277653,-0.27963191445832
0.511588,2.6369165039062503,0.20357666015625,3.76257568359375,-0.025033714246744835,0.03195793308095085,0.018375811521546742,4.6128076171875,0.58198974609375,-0.9268725585937501,-0.025033714246744835,-0.0806937810294009,0.40613206623708376,4.57209228515625,-0.9460327148437501,-0.775986328125,0.20879182946221225,-0.2500708263584404,-0.2753708567141932
0.5174,2.6297314453125002,0.239501953125,3.7673657226562502,-0.030892668644919158,0.035686358607061784,0.02583266257376861,4.641547851562501,0.5316943359375,-0.9244775390625001,-0.02343581759269729,-0.07243798165015528,0.39361520911371134,4.5840673828125,-0.9532177734375,-0.814306640625,0.21358551942435489,-0.24501082028728988,-0.26551716068090003
0.52322,2.58422607421875,0.24668701171875002,3.726650390625,-0.035686358607061784,0.033289513625990474,0.03169161697194293,4.62957275390625,0.57719970703125,-0.9532177734375,-0.007190534943213942,-0.08335694211948015,0.38589204195248156,4.53856201171875,-1.00830322265625,-0.7448510742187501,0.18642127630554664,-0.23409185981796501,-0.25619609686562267
0.529044,2.6488916015625,0.17244140625,3.77694580078125,-0.035686358607061784,0.004793689962142628,0.041012680787220264,4.65831298828125,0.59635986328125,-0.97477294921875,-0.020506340393610132,-0.07536745884924242,0.35872779883367334,4.588857421875001,-1.01309326171875,-0.6945556640625,0.1691107292200316,-0.21944447382252918,-0.24394555585125818
0.534852,2.54111572265625,0.19160156250000002,3.78652587890625,-0.03382214584400632,0.03621899082507764,0.02450108202872899,4.703818359375,0.59156982421875,-0.9604028320312501,-0.04154531300523611,-0.0671116594699968,0.32969934295180964,4.57927734375,-1.0753637695312501,-0.70892578125,0.15765913653269087,-0.20453077171808548,-0.23462449203598085
0.540668,2.65128662109375,0.18681152343750002,3.80568603515625,-0.04314320965928365,0.02956108809987954,0.0447411063133312,4.6894482421875,0.52929931640625,-1.00351318359375,-0.06631271114297302,-0.06551376281594926,0.31638353750141346,4.5673022460937505,-1.12326416015625,-0.7041357421875001,0.17470336750919802,-0.20399813950006962,-0.2151834160784024
0.546488,2.64170654296875,0.21555175781250002,3.72904541015625,-0.05166532514753722,0.03275688140797463,0.03781688747912518,4.6319677734375,0.47181884765625004,-0.9604028320312501,-0.08735168375459901,-0.06231796950785416,0.2990729904158984,4.56251220703125,-1.09452392578125,-0.6873706054687501,0.19201391459471304,-0.18455706354249118,-0.18508969576050702
0.552288,2.6441015625,0.24908203125,3.8104760742187502,-0.052464273474560986,0.02956108809987954,0.04154531300523611,4.64394287109375,0.44307861328125003,-0.9915380859375,-0.0862864193185673,-0.053263221801584756,0.26578347678990794,4.5265869140625,-1.0154882812500001,-0.69695068359375,0.18269285077943573,-0.16192019427681767,-0.1366201639210649
0.558112,2.6009912109375,0.18920654296875,3.81287109375,-0.046072686858370814,0.023968449810713142,0.0380832035881331,4.6343627929687505,0.3975732421875,-1.02267333984375,-0.09667274756987633,-0.06578007892495717,0.23595607258102047,4.512216796875,-1.044228515625,-0.699345703125,0.14008227333816792,-0.14247911831923923,-0.11744540407249439
0.563932,2.6009912109375,0.1293310546875,3.7673657226562502,-0.04633900296737874,0.023968449810713142,0.03781688747912518,4.608017578125001,0.3975732421875,-1.0370434570312501,-0.11957593294455778,-0.06897587223305227,0.20639498448114094,4.5457470703125,-1.082548828125,-0.7424560546875001,0.11132013356531215,-0.09587379924285257,-0.07962851659336921
0.56974,2.6297314453125002,0.17962646484375,3.7673657226562502,-0.039148468024164794,0.015978966540475426,0.039148468024164794,4.60562255859375,0.3305126953125,-0.9819580078125001,-0.11851066850852608,-0.057524279545711536,0.18429074743348325,4.53856201171875,-1.08015380859375,-0.680185546875,0.09054747706269409,-0.05033374460249759,-0.04554005464035497
0.575568,2.66086669921875,0.23231689453125,3.7122802734375,-0.04687163518539458,0.021837920938649752,0.04420847409531535,4.6367578125,0.3975732421875,-1.0394384765625,-0.11558119130943892,-0.06231796950785416,0.1579254526416988,4.5074267578125005,-1.005908203125,-0.6682104492187501,0.05992112452678285,-0.01757686319452297,-0.010918960469324876
0.581376,2.65128662109375,0.27303222656250004,3.7386254882812504,-0.05139900903852929,0.026631610900792378,0.052464273474560986,4.6128076171875,0.46702880859375,-1.00830322265625,-0.12463593901570832,-0.06737797557900471,0.11478224298241516,4.5601171875,-0.99393310546875,-0.6753955078125,-0.005060006071150552,0.02024002428460221,0.022903185374681445
0.587176,2.4572900390625003,0.1772314453125,3.6476147460937502,-0.05992112452678285,0.015180018213451656,0.05432848623761645,4.6870532226562505,0.5269042968750001,-1.00830322265625,-0.15526229155161955,-0.0705737688870998,0.07456851052221866,4.555327148437501,-1.005908203125,-0.69216064453125,-0.07829693604832959,0.06418218227090963,0.05033374460249759
0.592992,2.6776318359375,0.20357666015625,3.7937109375,-0.046072686858370814,0.03036003642690331,0.05725796343670361,4.6870532226562505,0.39517822265625,-0.99872314453125,-0.19547602401181605,-0.04820321573043421,0.05113269292952137,4.5984375,-1.0298583984375,-0.641865234375,-0.1645833553668969,0.11877698461753401,0.07962851659336921
0.598804,2.61775634765625,0.18441650390625,3.745810546875,-0.05459480234662437,0.009587379924285256,0.06258428561686209,4.6894482421875,0.3305126953125,-0.97477294921875,-0.21891184160451335,-0.027963191445831998,0.02343581759269729,4.59125244140625,-0.97716796875,-0.57719970703125,-0.2207760543675688,0.16005598151376219,0.1131843463283676
0.604612,2.5938061523437503,0.15088623046875002,3.803291015625,-0.050600060711505516,0.02103897261162598,0.05885586009075116,4.615202636718751,0.27303222656250004,-0.9651928710937501,-0.22450447989367975,-0.024234765919721065,0.0013315805450396189,4.581672363281251,-0.9244775390625001,-0.5676196289062501,-0.2974750937618509,0.22237395102161636,0.15100123380749278
0.610428,2.634521484375,0.22034179687500002,3.7937109375,-0.04660531907638666,0.010386328251309028,0.06498113059793341,4.6032275390625,0.26105712890625,-0.93884765625,-0.21225393887931526,-0.018375811521546742,-0.030892668644919158,4.5744873046875005,-0.9412426757812501,-0.689765625,-0.3581951666156575,0.251668723012488,0.19734023677487153
0.61624,2.6393115234375,0.21315673828125,3.76257568359375,-0.04980111238448175,0.017310547085515045,0.06631271114297302,4.61999267578125,0.3784130859375,-0.9532177734375,-0.21997710604054505,-0.029294771990871615,-0.07084008499610772,4.5074267578125005,-1.0346484375,-0.62989013671875,-0.41731734281541655,0.27590348893220906,0.2316950148368937
0.622048,2.57943603515625,0.19399658203125,3.7697607421875,-0.046072686858370814,0.006924218834206019,0.06285060172587001,4.6511279296875,0.354462890625,-1.0394384765625,-0.2181128932774896,-0.03275688140797463,-0.10359696640408235,4.493056640625,-1.10410400390625,-0.6945556640625,-0.46978161628997755,0.30200246761498556,0.26551716068090003
0.627864,2.5698559570312502,0.17483642578125,3.78652587890625,-0.04394215798630743,0.0013315805450396189,0.06151902118083039,4.70621337890625,0.3448828125,-1.0585986328125,-0.22317289934864012,-0.019441075957578435,-0.13795174446610453,4.50024169921875,-1.19990478515625,-0.63947021484375,-0.4737763579250964,0.32410670466264324,0.2980077259798667
0.633684,2.60578125,0.15088623046875002,3.7745507812500003,-0.0380832035881331,-0.0055926382891664,0.0604537567447987,4.6343627929687505,0.28261230468750004,-1.00830322265625,-0.23702133701705216,-0.004793689962142628,-0.1688444131110237,4.4786865234375,-1.22385498046875,-0.6658154296875001,-0.4410194765171218,0.3323625040418889,0.33662356178601566
0.639492,2.5602758789062503,0.1484912109375,3.7793408203125,-0.03195793308095085,-0.012783173232380343,0.05566006678265607,4.66310302734375,0.2347119140625,-1.01309326171875,-0.22450447989367975,0.013582121559404112,-0.18935075350463382,4.5361669921875,-1.14242431640625,-0.69695068359375,-0.3725762365020854,0.35526568941657033,0.38376151308041817
0.645308,2.6488916015625,0.17244140625,3.79610595703125,-0.02609897868277653,-0.012516857123372417,0.04687163518539458,4.6008325195312505,0.31853759765625,-0.96998291015625,-0.20106866230098247,0.014647385995435807,-0.20346550728205376,4.55293212890625,-1.07296875,-0.74006103515625,-0.363255172686808,0.38589204195248156,0.41678471059740074
0.651136,2.634521484375,0.162861328125,3.803291015625,-0.021571604829641825,-0.013049489341388266,0.04980111238448175,4.5936474609375,0.43110351562500004,-1.0394384765625,-0.17656758027225347,0.015978966540475426,-0.23409185981796501,4.53856201171875,-0.9915380859375,-0.718505859375,-0.3462109417103009,0.3925499446776797,0.43489420600993955
0.656936,2.60817626953125,0.162861328125,3.7913159179687503,-0.014381069886427884,-0.011451592687340723,0.0447411063133312,4.61041259765625,0.5652246093750001,-1.0298583984375,-0.17310547085515046,0.02343581759269729,-0.25086977468546423,4.57209228515625,-0.9005273437500001,-0.75922119140625,-0.33688987789502356,0.3954794218767668,0.46978161628997755
0.662744,2.6129663085937502,0.21076171875000002,3.75299560546875,-0.02476739813773691,-0.00985369603329318,0.03888215191515687,4.6343627929687505,0.67779052734375,-1.00830322265625,-0.19094865015868134,0.018375811521546742,-0.26152241904578116,4.615202636718751,-0.852626953125,-0.7616162109375001,-0.3648530693408556,0.41918155557847203,0.49002164057457975
0.66856,2.5914111328125,0.17962646484375,3.822451171875,-0.022636869265673522,-0.008788431597261484,0.043409525768291574,4.65591796875,0.6873706054687501,-1.05620361328125,-0.21198762277030733,0.023968449810713142,-0.2681803217709792,4.64394287109375,-0.7999365234375,-0.8286767578125,-0.3928162607866876,0.44607948258827235,0.49188585333763524
0.674364,2.65607666015625,0.21315673828125,3.7122802734375,-0.019174759848570512,-0.008788431597261484,0.03302319751698255,4.6343627929687505,0.75922119140625,-1.0346484375,-0.23196133094590163,0.04660531907638666,-0.2721750634060981,4.6128076171875,-0.74964111328125,-0.814306640625,-0.4269047227397018,0.45406896585851003,0.49667954329977787
0.680164,2.6369165039062503,0.24668701171875002,3.7386254882812504,-0.02583266257376861,-0.0031957933080950856,0.038349519697141024,4.675078125000001,0.8238867187500001,-0.9604028320312501,-0.24447818806927404,0.05299690569257683,-0.2756371728232011,4.65352294921875,-0.7831713867187501,-0.7711962890625,-0.4889563761385481,0.4668521390908904,0.4982774399538254
0.685992,2.70397705078125,0.2442919921875,3.7985009765625004,-0.028495823663847845,-0.006924218834206019,0.04234426133225988,4.63915283203125,0.89334228515625,-1.0106982421875002,-0.27643612115022487,0.060187440635790776,-0.27164243118808223,4.65352294921875,-0.8238867187500001,-0.79754150390625,-0.5595301450256479,0.489222692247556,0.4902879566835877
0.691812,2.60578125,0.22273681640625,3.7913159179687503,-0.026631610900792378,-0.015180018213451656,0.03781688747912518,4.6990283203125,0.8382568359375,-1.025068359375,-0.31505195695637384,0.05992112452678285,-0.27856665002228825,4.6607080078125005,-0.91729248046875,-0.70174072265625,-0.6298375978037397,0.5257079991816416,0.4836300539583896
0.697624,2.6488916015625,0.26345214843750003,3.726650390625,-0.026631610900792378,-0.008522115488253561,0.0380832035881331,4.67268310546875,0.7711962890625,-1.0298583984375,-0.3792341392272835,0.08229167768344844,-0.2932140360177241,4.56251220703125,-0.9651928710937501,-0.61552001953125,-0.6740460718990551,0.5235774703095781,0.4982774399538254
0.703448,2.56506591796875,0.19878662109375,3.8104760742187502,-0.025033714246744835,-0.008788431597261484,0.03994741635118857,4.73255859375,0.65384033203125,-1.06578369140625,-0.4101268078722026,0.09241168982574956,-0.3139866925203421,4.550537109375,-1.0753637695312501,-0.6274951171875001,-0.7004113666908396,0.5110606131862058,0.5315669535798159
0.709268,2.5674609375,0.08382568359375,3.83921630859375,-0.00905474770626941,-0.013848437668412037,0.03169161697194293,4.722978515625,0.45984375,-1.0394384765625,-0.4285026193937494,0.09667274756987633,-0.33422671680494437,4.6271777343750005,-1.1256591796875,-0.72090087890625,-0.646615512671239,0.558997512807632,0.569383841058941
0.715076,2.7399023437500003,0.18202148437500001,3.8080810546875004,-0.016511598758491276,-0.014647385995435807,0.031425300862935004,4.6008325195312505,0.39038818359375,-0.9604028320312501,-0.4559331786215655,0.1062601274941616,-0.34434672894724544,4.646337890625,-1.01309326171875,-0.7616162109375001,-0.5755091115661233,0.6077333607560821,0.6215817984244941
0.720904,2.6680517578125,0.0718505859375,3.86316650390625,-0.018375811521546742,-0.05006742849348967,0.03115898475392708,4.550537109375,0.47900390625,-0.88855224609375,-0.42024682001450375,0.11691277185447854,-0.3573962182886337,4.550537109375,-0.8765771484375,-0.72090087890625,-0.5789712209832263,0.635962868310922,0.6631271114297302
0.726708,2.62733642578125,0.18681152343750002,3.80568603515625,0.004527373853134705,-0.03701793915210141,0.019973708175594285,4.61759765625,0.53408935546875,-1.0346484375,-0.3882888869335529,0.09187905760773371,-0.3888215191515687,4.44276123046875,-0.9148974609375,-0.74006103515625,-0.6396912938370329,0.6663229047378253,0.6982808378187761
0.73252,2.6369165039062503,0.10538085937500001,3.8176611328125003,0.008255799379245638,-0.03941478413317272,0.020506340393610132,4.65352294921875,0.59396484375,-1.1472143554687502,-0.38216361642637064,0.08149272935642468,-0.39920784740287774,4.43318115234375,-1.00830322265625,-0.7711962890625,-0.6617955308846906,0.6942860961836573,0.7323692997717904
0.738348,2.6201513671875003,0.11735595703125,3.7673657226562502,0.02450108202872899,-0.039148468024164794,0.011451592687340723,4.7373486328125,0.73527099609375,-1.09452392578125,-0.39148468024164795,0.11105381745630422,-0.4130562850712898,4.512216796875,-1.01309326171875,-0.8406518554687501,-0.6727144913540155,0.7470166857672262,0.761664071762662
0.744164,2.6105712890625,0.14609619140625002,3.80568603515625,0.03515372638904594,-0.05539375067364815,0.007190534943213942,4.73255859375,0.79275146484375,-1.1639794921875,-0.42077945223251956,0.11424961076439931,-0.41172470452625015,4.5146118164062505,-1.0011181640625,-0.871787109375,-0.6684534336098887,0.758468278454567,0.7952199014976604
0.749984,2.6488916015625,0.1580712890625,3.8464013671875,0.039148468024164794,-0.05805691176372738,-0.0034621094171030094,4.648732910156251,0.83107177734375,-1.0921289062500001,-0.4740426740341043,0.11584750741844685,-0.3994741635118857,4.50024169921875,-0.9268725585937501,-0.91729248046875,-0.5651227833148142,0.7486145824212738,0.8181230868723419
0.755804,2.69918701171875,0.1484912109375,3.7170703125,0.052464273474560986,-0.058323227872735306,-0.01411475377741996,4.71100341796875,0.96998291015625,-1.0753637695312501,-0.48815742781152427,0.14460964719130262,-0.3850930936254578,4.5840673828125,-0.7065307617187501,-1.0154882812500001,-0.5049353426790235,0.7073355855250456,0.8364988983938886
0.76162,2.68481689453125,0.18681152343750002,3.755390625,0.055127434564640226,-0.05193164125654514,-0.014647385995435807,4.68226318359375,1.149609375,-1.02746337890625,-0.5028048138069601,0.1688444131110237,-0.3627225404687922,4.71100341796875,-0.5508544921875,-1.1256591796875,-0.5496764489923547,0.7486145824212738,0.817856770763334
0.76742,2.70158203125,0.17004638671875,3.7649707031250004,0.060187440635790776,-0.05113269292952137,-0.021305288720633902,4.6032275390625,1.3076806640625,-1.1136840820312501,-0.5411543335041011,0.16218651038582557,-0.34967305112740393,4.74932373046875,-0.5652246093750001,-0.9723779296875,-0.6697850141549283,0.8008125397868269,0.7952199014976604
0.77324,2.6896069335937502,0.19399658203125,3.8080810546875004,0.056725331218687766,-0.04980111238448175,-0.025033714246744835,4.6798681640625,1.29570556640625,-1.1951147460937501,-0.6122607346092168,0.15978966540475428,-0.32943302684280173,4.7469287109375005,-0.613125,-0.910107421875,-0.7344998286438538,0.8609999804226176,0.7656588133977809
0.779048,2.59859619140625,0.1580712890625,3.8511914062500003,0.061785337289838316,-0.06072007285380662,-0.030093720317895388,4.78285400390625,1.12805419921875,-1.1472143554687502,-0.6982808378187761,0.20240024284602207,-0.2945456165627637,4.69663330078125,-0.6945556640625,-0.8406518554687501,-0.7592672267815908,0.8857673785603545,0.7597998589996066
0.784856,2.596201171875,0.12693603515625002,3.8008959960937503,0.0716390333231315,-0.05779059565471946,-0.035686358607061784,4.6870532226562505,0.9268725585937501,-0.9843530273437501,-0.7563377495825035,0.24234765919721063,-0.2697782184250268,4.722978515625,-0.70892578125,-0.910107421875,-0.7219829715204814,0.8500810199532928,0.7459514213311945
0.790664,2.68481689453125,0.143701171875,3.82963623046875,0.08602010320955938,-0.0660463950339651,-0.04074636467821234,4.608017578125001,0.8669970703125001,-0.7807763671875,-0.740891415260044,0.2588592579557019,-0.24367923974225025,4.7804589843750005,-0.53408935546875,-0.9077124023437501,-0.6876281934584592,0.817590454654326,0.729972454790719
0.796476,2.682421875,0.19399658203125,3.75299560546875,0.09374327037078917,-0.06338323394388586,-0.05166532514753722,4.5409570312500005,1.0106982421875002,-0.77838134765625,-0.6671218530648491,0.23782028534407593,-0.21198762277030733,4.8403344726562505,-0.239501953125,-0.88855224609375,-0.7110640110511565,0.8293083634506747,0.71958612653941
0.802288,2.70876708984375,0.22513183593750002,3.78652587890625,0.08788431597261485,-0.05299690569257683,-0.05139900903852929,4.56251220703125,1.2502001953125002,-0.7472460937500001,-0.6282397011496922,0.19627497233883984,-0.1936118112487606,4.89302490234375,-0.17483642578125,-0.8382568359375,-0.7890946309904782,0.8492820716262689,0.6988134700367921
0.808104,2.71834716796875,0.25387207031250003,3.745810546875,0.0761664071762662,-0.05566006678265607,-0.05166532514753722,4.641547851562501,1.3460009765625,-0.89334228515625,-0.6261091722776289,0.1725728386371346,-0.16618125202094444,4.84991455078125,-0.29937744140625,-0.8214916992187501,-0.9142632022242023,0.8519452327163481,0.6530070992874292
0.81392,2.68481689453125,0.25147705078125,3.77694580078125,0.07217166554114735,-0.04820321573043421,-0.04314320965928365,4.7181884765625,1.2885205078125002,-0.8957373046875,-0.6399576099460409,0.18002968968935648,-0.13821806057511243,4.86907470703125,-0.4981640625,-0.8406518554687501,-0.9938917188175715,0.8732505214369821,0.6229133789695337
0.819728,2.6369165039062503,0.162861328125,3.74341552734375,0.0772316716122979,-0.04633900296737874,-0.04687163518539458,4.703818359375,1.10410400390625,-0.8861572265625001,-0.6452839321261993,0.21758026105947373,-0.11105381745630422,4.91697509765625,-0.7256909179687501,-0.76880126953125,-0.9946906671445953,0.9382316520349155,0.5816343820733055
0.825544,2.6680517578125,0.19160156250000002,3.745810546875,0.0817590454654326,-0.047936899621426284,-0.0492684801664659,4.68226318359375,0.93645263671875,-0.7855664062500001,-0.6253102239506051,0.22450447989367975,-0.08868326429963862,4.8427294921875,-0.81670166015625,-0.63947021484375,-0.9331716459637649,0.9867011838743576,0.5619269900067192
0.831364,2.6464965820312503,0.21076171875000002,3.7506005859375002,0.07190534943213941,-0.04660531907638666,-0.04660531907638666,4.60562255859375,0.890947265625,-0.7855664062500001,-0.5850964914904085,0.22876553763780652,-0.08149272935642468,4.7852490234375,-0.8765771484375,-0.59396484375,-0.8958873907026557,0.9981527765616983,0.5566006678265607
0.837172,2.59859619140625,0.18202148437500001,3.81526611328125,0.07323692997717904,-0.04154531300523611,-0.0492684801664659,4.5936474609375,0.7855664062500001,-0.8047265625000001,-0.5499427651013626,0.2016012945189983,-0.07510114274023451,4.6942382812500005,-0.948427734375,-0.59396484375,-0.8519452327163481,0.9909622416184845,0.5600627772436637
0.842984,2.6369165039062503,0.1484912109375,3.7410205078125003,0.08149272935642468,-0.043409525768291574,-0.04820321573043421,4.63915283203125,0.718505859375,-0.775986328125,-0.5339637985608872,0.20240024284602207,-0.0639158661619017,4.6128076171875,-0.9627978515625001,-0.5221142578125,-0.7667240778338126,0.9693906367888425,0.572845950476044
0.848808,2.6632617187500003,0.17962646484375,3.77215576171875,0.08575378710055145,-0.03302319751698255,-0.05193164125654514,4.5936474609375,0.71611083984375,-0.75922119140625,-0.48869006002954013,0.2170476288414579,-0.06870955612404434,4.60562255859375,-0.8861572265625001,-0.3975732421875,-0.6902913545485384,0.9382316520349155,0.5978796647227889
0.854628,2.6632617187500003,0.23231689453125,3.7314404296875003,0.08122641324741675,-0.032490565298966705,-0.05273058958356891,4.581672363281251,0.8406518554687501,-0.7999365234375,-0.44288368928017724,0.20106866230098247,-0.08149272935642468,4.57927734375,-0.8574169921875,-0.44786865234375,-0.7344998286438538,0.9499495608312641,0.6119944185002089
0.86044,2.6033862304687503,0.23231689453125,3.7673657226562502,0.08522115488253561,-0.028762139772855768,-0.04580637074936289,4.6008325195312505,0.8837622070312501,-0.8214916992187501,-0.4559331786215655,0.17097494198308708,-0.07803061993932167,4.615202636718751,-0.9915380859375,-0.488583984375,-0.8050735975309536,1.0229201746994352,0.6293049655857239
0.86626,2.57464599609375,0.27303222656250004,3.77694580078125,0.08548747099154354,-0.03728425526110933,-0.045273738531347044,4.684658203125,0.9005273437500001,-0.79754150390625,-0.5147890387123166,0.16511598758491275,-0.0806937810294009,4.548142089843751,-1.140029296875,-0.38080810546875005,-0.8266452023605955,1.0785802414820913,0.6482134093252865
0.87208,2.6033862304687503,0.18681152343750002,3.74341552734375,0.08894958040864655,-0.04633900296737874,-0.047936899621426284,4.703818359375,0.775986328125,-0.7903564453125,-0.5741775310210837,0.17656758027225347,-0.08415589044650391,4.4691064453125,-1.23822509765625,-0.3400927734375,-0.814128345237223,1.0820423508991943,0.6663229047378253
0.877892,2.63212646484375,0.14609619140625002,3.7817358398437504,0.09827064422392387,-0.0537958540196006,-0.04900216405745798,4.6798681640625,0.67060546875,-0.756826171875,-0.5832322787273531,0.19387812735776852,-0.0929443220437654,4.4786865234375,-1.2693603515625,-0.33769775390625,-0.7416903635870677,1.0676612810127664,0.6857639806954038
0.883712,2.57943603515625,0.1580712890625,3.745810546875,0.10279801807705859,-0.06364955005289379,-0.05805691176372738,4.646337890625,0.622705078125,-0.7855664062500001,-0.5435511784851724,0.19760655288387946,-0.09480853480682087,4.4810815429687505,-1.1160791015625,-0.316142578125,-0.7094661143971089,1.027181232443562,0.7033408438899267
0.88952,2.55069580078125,0.1293310546875,3.7218603515625004,0.115314875200431,-0.06870955612404434,-0.05965480841777493,4.61999267578125,0.622705078125,-0.814306640625,-0.4889563761385481,0.17417073529118215,-0.10093380531400312,4.4116259765625,-1.1136840820312501,-0.42870849609375,-0.6631271114297302,0.9281116398926144,0.729972454790719
0.895328,2.58422607421875,0.11017089843750001,3.7074902343750002,0.1198422490535657,-0.07243798165015528,-0.06205165339884624,4.588857421875001,0.65863037109375,-0.7831713867187501,-0.4492752758963674,0.17923074136233272,-0.10253170196805066,4.5649072265625,-1.08015380859375,-0.5460644531250001,-0.5456817073572359,0.8452873299911501,0.7416903635870677
0.901152,2.6488916015625,0.124541015625,3.7577856445312503,0.1296959450868589,-0.07217166554114735,-0.06285060172587001,4.50982177734375,0.7879614257812501,-0.7448510742187501,-0.4000067957299015,0.17949705747134062,-0.08309062601047222,4.6319677734375,-0.890947265625,-0.49097900390625004,-0.3960120540947827,0.821318880180437,0.744619840786155
0.906972,2.6704467773437504,0.18920654296875,3.7146752929687503,0.12490225512471625,-0.06870955612404434,-0.0716390333231315,4.5361669921875,0.93166259765625,-0.7640112304687501,-0.33848777454907114,0.1736381030731663,-0.06151902118083039,4.646337890625,-0.7616162109375001,-0.41912841796875,-0.33875409065807904,0.7946872692796446,0.7488808985302817
0.912792,2.67523681640625,0.23710693359375,3.7697607421875,0.11424961076439931,-0.06631271114297302,-0.07217166554114735,4.61759765625,1.0969189453125001,-0.8095166015625,-0.31185616364827873,0.167779148674992,-0.042610577441267804,4.6511279296875,-0.69695068359375,-0.35206787109375004,-0.38562572584347365,0.7576693301275431,0.7432882602411153
0.918624,2.6632617187500003,0.2682421875,3.77215576171875,0.115314875200431,-0.05965480841777493,-0.07882956826634543,4.6511279296875,1.1112890625,-0.8095166015625,-0.3134540603023263,0.1824265346704278,-0.02476739813773691,4.665498046875,-0.7448510742187501,-0.45984375,-0.4434163214981931,0.7105313788331407,0.7201187587574259
0.924436,2.692001953125,0.2442919921875,3.7218603515625004,0.11105381745630422,-0.05352953791059268,-0.06950850445106811,4.61041259765625,1.05620361328125,-0.737666015625,-0.31318774419331835,0.20426445560907755,-0.007190534943213942,4.7373486328125,-0.85023193359375,-0.54366943359375,-0.43169841270184445,0.6934871478566336,0.691889251202586
0.930248,2.70397705078125,0.23231689453125,3.71946533203125,0.10359696640408235,-0.04767058351241836,-0.06737797557900471,4.62957275390625,1.0202783203125,-0.63228515625,-0.2700445345340347,0.22343921545764805,0.018375811521546742,4.761298828125001,-0.9196875,-0.5412744140625,-0.3629888565778001,0.6964166250557207,0.650077622088342
0.936064,2.7063720703125003,0.22752685546875,3.7697607421875,0.09906959255094765,-0.03968110024218064,-0.0660463950339651,4.62957275390625,0.9843530273437501,-0.65384033203125,-0.22317289934864012,0.21997710604054505,0.03941478413317272,4.761298828125001,-0.9604028320312501,-0.51013916015625,-0.31984564691851647,0.6860302968044116,0.6133259990452484
0.941872,2.69918701171875,0.239501953125,3.7673657226562502,0.09560748313384464,-0.04420847409531535,-0.0639158661619017,4.665498046875,0.9651928710937501,-0.718505859375,-0.15153386602550864,0.2151834160784024,0.05219795736555306,4.7541137695312505,-0.9675878906250001,-0.49576904296875,-0.30013825485193013,0.6972155733827444,0.5805691176372738
0.947672,2.66086669921875,0.19639160156250002,3.74341552734375,0.08868326429963862,-0.03515372638904594,-0.06684534336098887,4.7133984375,0.9029223632812501,-0.6945556640625,-0.1062601274941616,0.21944447382252918,0.05619269900067192,4.799619140625,-0.9077124023437501,-0.43349853515625003,-0.2593918901737178,0.7201187587574259,0.5536711906274735
0.953488,2.64170654296875,0.22034179687500002,3.7506005859375002,0.09214537371674163,-0.03941478413317272,-0.06471481448892548,4.69184326171875,0.9077124023437501,-0.69216064453125,-0.07563377495825035,0.22450447989367975,0.06471481448892548,4.79722412109375,-0.9005273437500001,-0.3592529296875,-0.24208134308820273,0.7435545763501232,0.5302353730347763
0.959296,2.634521484375,0.24189697265625001,3.8008959960937503,0.09001484484467824,-0.04127899689622819,-0.06977482056007603,4.67747314453125,0.83586181640625,-0.63468017578125,-0.018642127630554665,0.2138518355333628,0.07962851659336921,4.77087890625,-0.890947265625,-0.32811767578125,-0.2506034585764563,0.7227819198475052,0.5201153608924751
0.965112,2.5722509765625,0.25147705078125,3.73623046875,0.08761799986360692,-0.04953479627547382,-0.06870955612404434,4.569697265625,0.83586181640625,-0.622705078125,0.043675841877299504,0.20905814557122018,0.09614011535186048,4.7469287109375005,-0.9029223632812501,-0.28500732421875,-0.25992452239173364,0.7078682177430614,0.5086637682051345
0.97092,2.64170654296875,0.23710693359375,3.7817358398437504,0.0940095864797971,-0.04500742242233912,-0.06844324001503642,4.5840673828125,0.852626953125,-0.6179150390625,0.12490225512471625,0.20772656502618056,0.11052118523828837,4.7900390625,-0.8646020507812501,-0.28740234375,-0.27137611507907433,0.7012103150178634,0.5017395493709285
0.976744,2.6896069335937502,0.21794677734375,3.7673657226562502,0.09241168982574956,-0.03861583580614895,-0.07323692997717904,4.6032275390625,1.05141357421875,-0.67779052734375,0.17630126416324554,0.19547602401181605,0.12596751956074795,4.79722412109375,-0.7711962890625,-0.32572265625,-0.26951190231601885,0.6910903028755622,0.49002164057457975
0.982548,2.66086669921875,0.258662109375,3.72904541015625,0.08575378710055145,-0.03701793915210141,-0.06844324001503642,4.5984375,1.10410400390625,-0.699345703125,0.18881812128661796,0.1802960057983644,0.14088122166519168,4.7852490234375,-0.7328759765625,-0.22752685546875,-0.29268140379970825,0.6929545156386177,0.47537425457914395
0.988364,2.6776318359375,0.3209326171875,3.7482055664062504,0.083889574337496,-0.031425300862935004,-0.0639158661619017,4.6128076171875,1.20469482421875,-0.7448510742187501,0.1688444131110237,0.16378440703987313,0.1669802003479682,4.6942382812500005,-0.7520361328125,-0.20597167968750002,-0.32224249189958776,0.6583334214675876,0.45540054640354966
0.99418,2.6776318359375,0.3305126953125,3.7218603515625004,0.06657902725198095,-0.02583266257376861,-0.06524744670694133,4.646337890625,1.22385498046875,-0.756826171875,0.12277172625265287,0.18216021856141987,0.19121496626768927,4.708608398437501,-0.8262817382812501,-0.19160156250000002,-0.32969934295180964,0.6263754883866367,0.43276367713787617
0.99998,2.6297314453125002,0.27303222656250004,3.7482055664062504,0.05725796343670361,-0.02343581759269729,-0.055926382891663996,4.6128076171875,1.25259521484375,-0.69216064453125,0.08309062601047222,0.17763284470828516,0.22423816378467182,4.727768554687501,-0.833466796875,-0.27542724609375,-0.34088461953014243,0.6024070385759236,0.41039312398121053
1.005788,2.69918701171875,0.3113525390625,3.70030517578125,0.04740426740341044,-0.0223705531566656,-0.0492684801664659,4.6128076171875,1.2214599609375,-0.699345703125,0.04767058351241836,0.1925465468127289,0.2463424008323295,4.71100341796875,-0.8095166015625,-0.23231689453125,-0.36804886264895065,0.6032059869029474,0.3826962486443865
1.011604,2.6632617187500003,0.34248779296875004,3.7074902343750002,0.03515372638904594,-0.00985369603329318,-0.04633900296737874,4.5840673828125,1.16158447265625,-0.70174072265625,0.0077231671612297895,0.2016012945189983,0.26551716068090003,4.727768554687501,-0.85023193359375,-0.25626708984375,-0.4032025890379966,0.6197175856614386,0.3483414705823643
1.017412,2.66086669921875,0.3305126953125,3.7386254882812504,0.03515372638904594,-0.004793689962142628,-0.040213732460196494,4.5457470703125,1.1064990234375,-0.6753955078125,-0.032490565298966705,0.20133497840999037,0.2862898171835181,4.66310302734375,-0.8669970703125001,-0.2682421875,-0.38376151308041817,0.6199839017704466,0.32011196302752437
1.023216,2.6488916015625,0.28021728515625,3.6979101562500003,0.02476739813773691,0.0034621094171030094,-0.04846953183944213,4.53377197265625,1.0202783203125,-0.6945556640625,-0.04314320965928365,0.20959077778923602,0.3022687837239935,4.6319677734375,-0.9244775390625001,-0.27542724609375,-0.331829871823873,0.6098638896281454,0.28575718496550223
1.029036,2.6464965820312503,0.2442919921875,3.70988525390625,0.02103897261162598,0.0021305288720633903,-0.04420847409531535,4.51940185546875,0.97716796875,-0.70892578125,-0.030892668644919158,0.21092235833427564,0.32863407851577797,4.57927734375,-0.98914306640625,-0.229921875,-0.2721750634060981,0.5600627772436637,0.25779399351967025
1.03484,2.6776318359375,0.20836669921875,3.7482055664062504,0.01757686319452297,0.0111852765783328,-0.04287689355027573,4.55293212890625,0.9867480468750001,-0.76880126953125,-0.008788431597261484,0.21544973218741034,0.34780883836434845,4.57209228515625,-1.063388671875,-0.239501953125,-0.2474076652683612,0.4980111238448175,0.22796658931078276
1.040648,2.66086669921875,0.229921875,3.7074902343750002,0.019441075957578435,0.007456851052221866,-0.04127899689622819,4.6343627929687505,0.9819580078125001,-0.7640112304687501,0.006391586616190171,0.21145499055229147,0.36458675323184764,4.59125244140625,-1.09931396484375,-0.20597167968750002,-0.23382554370895708,0.457797391384621,0.20106866230098247
1.046472,2.6369165039062503,0.2442919921875,3.70988525390625,0.0223705531566656,0.007989483270237713,-0.046072686858370814,4.6128076171875,0.9436376953125001,-0.8023315429687501,-0.0010652644360316951,0.21971078993153711,0.36565201766787936,4.58646240234375,-1.2070898437500002,-0.18920654296875,-0.23675502090804423,0.4375573671000188,0.17816547692630103
1.0523,2.5722509765625,0.28021728515625,3.77694580078125,0.02103897261162598,0.0066579027251980945,-0.04314320965928365,4.65591796875,0.89334228515625,-0.7424560546875001,-0.0223705531566656,0.22370553156665599,0.3797667714452993,4.548142089843751,-1.2645703125,-0.20597167968750002,-0.23808660145308386,0.41492049783434526,0.15046860158947695
1.058112,2.5914111328125,0.24189697265625001,3.68593505859375,0.014381069886427884,-0.0034621094171030094,-0.03941478413317272,4.6607080078125005,0.814306640625,-0.70174072265625,-0.03861583580614895,0.21651499662344204,0.3829625647533944,4.57209228515625,-1.4082714843750002,-0.1772314453125,-0.21012341000725188,0.4109257561992264,0.13528858337602528
1.063936,2.54830078125,0.28500732421875,3.71946533203125,0.013582121559404112,-0.009587379924285256,-0.03701793915210141,4.69663330078125,0.7831713867187501,-0.65384033203125,-0.03941478413317272,0.21678131273244997,0.3952131057677589,4.548142089843751,-1.5447875976562502,-0.15088623046875002,-0.15100123380749278,0.39707731853081435,0.11717908796348646
1.069752,2.596201171875,0.25387207031250003,3.7745507812500003,0.017044230976507122,-0.0167779148674992,-0.03781688747912518,4.665498046875,0.7041357421875001,-0.641865234375,-0.0335558297349984,0.2250371121116956,0.3848267775164499,4.57927734375,-1.5280224609375002,-0.11256591796875001,-0.06338323394388586,0.3978762668578381,0.09986854087797142
1.07556,2.6464965820312503,0.27542724609375,3.75299560546875,0.010918960469324876,-0.019973708175594285,-0.03115898475392708,4.6798681640625,0.6849755859375001,-0.62989013671875,-0.014647385995435807,0.21438446775137865,0.38029940366331516,4.52419189453125,-1.5926879882812501,-0.09101074218750001,0.014913702104443732,0.39468047354974306,0.08788431597261485
1.081392,2.60817626953125,0.29219238281250004,3.7482055664062504,0.015978966540475426,-0.0167779148674992,-0.03115898475392708,4.71100341796875,0.6945556640625,-0.6370751953125,0.0042610577441267805,0.1981391851018953,0.36911412708498237,4.4834765625,-1.6334033203125,-0.011975097656250001,0.09587379924285257,0.38908783526057666,0.06950850445106811
1.087204,2.58901611328125,0.25387207031250003,3.74341552734375,0.010120012142301104,-0.022636869265673522,-0.030093720317895388,4.675078125000001,0.718505859375,-0.65863037109375,0.014913702104443732,0.18322548299745156,0.34408041283823754,4.4595263671875,-1.72680908203125,-0.02155517578125,0.18615496019653874,0.345944625601293,0.05779059565471946
1.093016,2.59859619140625,0.258662109375,3.7745507812500003,0.013315805450396189,-0.01890844373956259,-0.022636869265673522,4.71579345703125,0.7280859375000001,-0.689765625,0.02902845588186369,0.15872440096872256,0.3121224797572867,4.3948608398437505,-1.7124389648437501,-0.10777587890625001,0.24554345250530574,0.27297401173312186,0.05139900903852929
1.098848,2.61775634765625,0.22513183593750002,3.7506005859375002,0.011984224905356571,-0.01810949541253882,-0.025033714246744835,4.857099609375,0.7807763671875,-0.6634204101562501,0.029827404208887465,0.1499359693714611,0.27643612115022487,4.43318115234375,-1.7076489257812502,-0.13412109375,0.2958771971078033,0.24607608472332157,0.05139900903852929
1.10466,2.63212646484375,0.25387207031250003,3.7482055664062504,0.01411475377741996,-0.01970739206658636,-0.01757686319452297,4.9600854492187505,0.795146484375,-0.69695068359375,0.029827404208887465,0.12703278399677964,0.21145499055229147,4.493056640625,-1.6046630859375002,-0.026345214843750003,0.29640982932581916,0.2474076652683612,0.04207794522325196
1.110472,2.57943603515625,0.28261230468750004,3.7386254882812504,0.0010652644360316951,-0.03542004249805386,-0.006924218834206019,4.974455566406251,0.8286767578125,-0.7065307617187501,0.020506340393610132,0.0940095864797971,0.15020228548046902,4.548142089843751,-1.5495776367187502,0.086220703125,0.2790992822403041,0.2697782184250268,0.03169161697194293
1.116284,2.557880859375,0.296982421875,3.7649707031250004,-0.0007989483270237714,-0.050600060711505516,0.010652644360316951,5.05109619140625,0.8861572265625001,-0.72090087890625,-0.024234765919721065,0.09028116095368616,0.10466223084011404,4.58646240234375,-1.49688720703125,0.1389111328125,0.262055051263797,0.26711505733494756,0.04820321573043421
1.122096,2.5914111328125,0.35685791015625,3.7841308593750003,-0.010652644360316951,-0.055926382891663996,0.021305288720633902,4.96487548828125,0.85023193359375,-0.7041357421875001,-0.1267664678877717,0.12436962290670041,0.09161274149872578,4.50503173828125,-1.51365234375,0.18681152343750002,0.21864552549550542,0.24953819414042458,0.07936220048436128
1.1279,2.60578125,0.35206787109375004,3.7482055664062504,-0.01757686319452297,-0.06444849837991756,0.03542004249805386,4.876259765625,0.7807763671875,-0.718505859375,-0.2474076652683612,0.167779148674992,0.0862864193185673,4.51940185546875,-1.5711328125000001,0.10298583984375001,0.1512675499165007,0.22983080207383821,0.11132013356531215
1.13372,2.5147705078125,0.36164794921875004,3.7745507812500003,-0.02024002428460221,-0.08495483877352769,0.05139900903852929,4.87865478515625,0.7855664062500001,-0.6059399414062501,-0.33422671680494437,0.16005598151376219,0.06444849837991756,4.555327148437501,-1.5471826171875,0.15088623046875002,0.07243798165015528,0.23888554978010765,0.13129384174090641
1.139548,2.53632568359375,0.3496728515625,3.84879638671875,-0.03195793308095085,-0.11478224298241516,0.06205165339884624,4.9600854492187505,1.0011181640625,-0.6179150390625,-0.41518681394335316,0.11478224298241516,0.027963191445831998,4.581672363281251,-1.57352783203125,0.11256591796875001,0.007989483270237713,0.26951190231601885,0.15153386602550864
1.145356,2.5818310546875,0.32572265625,3.8511914062500003,-0.03169161697194293,-0.12996226119586682,0.0772316716122979,4.981640625,1.2717553710937501,-0.7256909179687501,-0.5534048745184657,0.08655273542757523,0.014647385995435807,4.5457470703125,-1.64537841796875,0.1484912109375,-0.05619269900067192,0.3174488019374451,0.16964336143804745
1.151172,2.6105712890625,0.3400927734375,3.8655615234375,-0.029294771990871615,-0.15472965933360372,0.09614011535186048,4.940925292968751,1.4226416015625,-0.929267578125,-0.747549317985242,0.07776430383031374,0.04314320965928365,4.43797119140625,-1.65495849609375,0.21315673828125,-0.12383699068868456,0.3379551423310553,0.18775285685058626
1.156988,2.6488916015625,0.42391845703125003,3.8440063476562503,-0.0380832035881331,-0.16165387816780974,0.10519486305812989,4.93613525390625,1.49688720703125,-1.0298583984375,-1.027713864661578,0.10146643753201896,0.04900216405745798,4.416416015625,-1.65495849609375,0.3113525390625,-0.19201391459471304,0.2990729904158984,0.20186761062800623
1.162792,2.66565673828125,0.41194335937500004,3.88232666015625,-0.05912217619975908,-0.1624528264948335,0.12836436454181926,5.05828125,1.33402587890625,-1.044228515625,-1.2953615542145414,0.10785802414820914,0.040213732460196494,4.435576171875001,-1.5711328125000001,0.277822265625,-0.27963191445832,0.24767398137736912,0.2226402671306243
1.1686,2.66086669921875,0.41433837890625,3.91585693359375,-0.08868326429963862,-0.17443705140019009,0.12117382959860531,4.98403564453125,1.05141357421875,-0.9675878906250001,-1.5331818395586172,0.14700649217237394,0.04314320965928365,4.39965087890625,-1.48251708984375,0.18920654296875,-0.359793063269705,0.19867181731991115,0.2631203156998287
1.174416,2.5938061523437503,0.5795947265625,3.9302270507812502,-0.15526229155161955,-0.18508969576050702,0.12064119738058947,4.794829101562501,0.7520361328125,-1.1064990234375,-1.6591493591193651,0.18855180517761003,0.05779059565471946,4.3828857421875,-1.4322216796875,0.11256591796875001,-0.4324973610288682,0.15606123987864334,0.31824775026446894
1.18022,2.52195556640625,0.536484375,3.908671875,-0.24714134915935326,-0.2593918901737178,0.09933590865995558,4.646337890625,0.5245092773437501,-0.9915380859375,-1.6951020338354348,0.2641855801358604,0.07856325215733752,4.35654052734375,-1.4418017578125,0.03592529296875,-0.4902879566835877,0.11105381745630422,0.37657097813720425
1.186032,2.37825439453125,0.239501953125,3.9709423828125003,-0.2452771363962978,-0.36005937937871296,0.16058861373177805,4.646337890625,0.354462890625,-0.9436376953125001,-1.687911498892221,0.2998719387429222,0.07989483270237714,4.339775390625,-1.4944921875000001,-0.026345214843750003,-0.5368932757599744,0.07696535550328998,0.4215784005595434
1.191848,2.6464965820312503,0.37362304687500003,3.97333740234375,-0.25140240690348004,-0.39361520911371134,0.18668759241455457,4.895419921875,0.052690429687500005,-0.718505859375,-1.631985116000557,0.30706247368613615,0.083889574337496,4.33259033203125,-1.48251708984375,-0.1676513671875,-0.5981459808317968,0.07643272328527413,0.44847632756934364
1.197668,2.529140625,0.5843847656250001,3.92543701171875,-0.3573962182886337,-0.4769721512331915,0.1589907170777305,4.940925292968751,-0.2682421875,-0.5077441406250001,-1.5377092134117518,0.3605920115967288,0.08149272935642468,4.36612060546875,-1.60226806640625,-0.1484912109375,-0.6665892208468333,0.09933590865995558,0.45486791418553385
1.20348,2.6464965820312503,0.0814306640625,4.04997802734375,-0.35872779883367334,-0.5086637682051345,0.10572749527614574,4.914580078125001,-0.51732421875,-0.3975732421875,-1.352353201542237,0.40373522125601247,0.021305288720633902,4.3637255859375,-1.7124389648437501,-0.11256591796875001,-0.7451524730041708,0.13795174446610453,0.4737763579250964
1.209304,2.529140625,-0.14609619140625002,3.9541772460937503,-0.29614351321681126,-0.5406217012860853,0.12197277792562909,4.91218505859375,-0.71132080078125,-0.52929931640625,-1.0660633843587188,0.3502056833454198,-0.057524279545711536,4.39007080078125,-1.84177001953125,-0.00239501953125,-0.7832356765923039,0.19014970183165758,0.4724447773800568
1.215124,2.54111572265625,-0.00718505859375,3.9996826171875,-0.2522013552305038,-0.6095975735191376,0.17204020641911877,5.09899658203125,-0.7472460937500001,-0.469423828125,-0.8500810199532928,0.28522455274748637,-0.13502226726701735,4.41881103515625,-1.9639160156250002,0.18681152343750002,-0.786165153791391,0.2463424008323295,0.48789111170251637
1.220936,2.8404931640625,0.3305126953125,4.076323242187501,-0.2623213673728049,-0.6388923455100092,0.23222764705490953,5.20437744140625,-0.8430468750000001,-0.36643798828125,-0.635962868310922,0.2841592883114547,-0.199204449537927,4.4307861328125,-2.1459375,0.32811767578125,-0.8186557190903577,0.2918824554726845,0.5243764186366019
1.226768,3.2189062500000003,0.6274951171875001,4.1002734375,-0.31611722139240556,-0.6074670446470741,0.2532666196665355,5.247487792968751,-0.7903564453125,-0.296982421875,-0.3571299021796258,0.29827404208887465,-0.26045715460974944,4.3924658203125,-2.37825439453125,0.40954833984375,-0.8159925580002785,0.293480352126732,0.5595301450256479
1.23258,3.2859667968750004,1.06099365234375,3.89190673828125,-0.43302999324688407,-0.5579322483716004,0.2777677016952645,5.374423828125,-0.5316943359375,-0.26105712890625,-0.1163801396364627,0.3065298414681203,-0.36192359214176845,4.45234130859375,-2.58901611328125,0.43828857421875,-0.7398261508240123,0.30013825485193013,0.6173207406803674
1.238392,3.1374755859375,0.929267578125,4.0020776367187505,-0.5214469414375148,-0.5680522605139015,0.3432814645112138,5.5564453125,-0.2442919921875,-0.03592529296875,-0.014647385995435807,0.32756881407974625,-0.5075985037691028,4.493056640625,-2.7638525390625,0.5316943359375,-0.6133259990452484,0.32783513018875415,0.6838997679323483
1.244216,3.1805859375,0.9029223632812501,3.88232666015625,-0.6034723030119553,-0.6191849534434228,0.4633900296737874,5.566025390625001,0.023950195312500002,0.1293310546875,0.05006742849348967,0.30945931866720744,-0.6383597132919933,4.59604248046875,-2.9267138671875,0.5843847656250001,-0.49348374999168276,0.3930825768956955,0.7403587830420281
1.250036,3.3123120117187503,0.7855664062500001,3.7050952148437504,-0.7017429472358792,-0.7246461326105607,0.5928196586516383,5.599555664062501,0.11735595703125,0.052690429687500005,0.17443705140019009,0.29960562263391427,-0.7323692997717904,4.5984375,-3.0823901367187503,0.67779052734375,-0.3664509659949031,0.4412857926261297,0.7904262115355178
1.255844,3.6404296875,0.7903564453125,3.32668212890625,-0.7821704121562721,-0.8998821323377745,0.6695186980459203,5.8246875000000005,0.26584716796875,0.045505371093750004,0.3267698657527225,0.370445707630022,-0.8325041567587698,4.6894482421875,-3.17340087890625,0.73527099609375,-0.23196133094590163,0.5012069171529125,0.8434231172280946
1.261664,3.8416113281250004,0.9604028320312501,2.90515869140625,-0.9116000411341231,-1.121723451141375,0.674312388008063,5.77439208984375,0.48618896484375,-0.045505371093750004,0.40027311183890946,0.41864892336045617,-0.9920275060545161,4.75171875,-3.12071044921875,0.73048095703125,-0.10892328858424083,0.5930859747606463,0.8886968557594417
1.267476,4.3014550781250005,0.8813671875000001,2.5602758789062503,-1.0391654573489186,-1.4168016999221544,0.6013417741398919,5.6474560546875,0.8765771484375,-0.32572265625,0.4894890083565639,0.38802257082454494,-1.1851066850852607,4.821174316406251,-3.0799951171875,0.8023315429687501,-0.010386328251309028,0.6956176767286969,0.9297095365466619
1.273276,4.768483886718751,0.6035449218750001,2.47166015625,-1.1174623933972483,-1.7089504715038468,0.5014732332619205,5.5588403320312505,1.302890625,-0.5748046875,0.5387574885230298,0.3472762061463326,-1.3949637789835048,4.88344482421875,-3.03448974609375,0.86939208984375,0.08815063208162277,0.8181230868723419,0.9624664179546366
1.279096,5.17563720703125,0.32332763671875003,2.33993408203125,-1.114799232307169,-1.9651465683694695,0.370445707630022,5.55405029296875,1.7938696289062501,-0.71132080078125,0.4455468503702565,0.2841592883114547,-1.5992282345925823,4.8403344726562505,-2.93868896484375,0.88855224609375,0.18322548299745156,0.9392969164709472,1.0037454148508647
1.284904,5.39118896484375,0.3113525390625,2.0142114257812502,-1.1033476396198283,-2.235990051230528,0.2159823644054262,5.520520019531251,2.4237597656250003,-0.93884765625,0.2127865710973311,0.21571604829641827,-1.831189565538484,4.8618896484375,-2.92431884765625,0.96998291015625,0.2644518962448683,1.0407633540029662,1.0535465272353466
1.290712,5.8318725585937505,-0.88855224609375,2.46926513671875,-0.8772452630721009,-2.553705169276981,-0.06684534336098887,5.6450610351562505,2.8261230468750003,-0.9627978515625001,-0.0761664071762662,0.17390441918217422,-2.040514027218712,4.84991455078125,-2.85486328125,0.9723779296875,0.3336940845869285,1.131843463283676,1.086836040861337
1.29652,6.77551025390625,-1.2717553710937501,2.9889843750000002,-0.3382214584400632,-2.5915220567561064,-0.35846148272466544,5.56363037109375,3.15424072265625,-0.99393310546875,-0.38376151308041817,0.13981595722916,-2.2383868962115994,4.876259765625,-2.6680517578125,0.9196875,0.3941478413317272,1.1930961683554986,1.1347729404827633
1.302332,6.991062011718751,-0.5867797851562501,3.12071044921875,0.12037488127158155,-2.5558356981490444,-0.5699164732769569,5.4175341796875,3.13987060546875,-1.1567944335937501,-0.6447512999081835,0.043675841877299504,-2.4226776436450828,4.9289501953125,-2.5004003906250003,0.8669970703125001,0.41518681394335316,1.2793825876740659,1.1677961379997457
1.308144,6.725214843750001,0.34248779296875004,3.036884765625,0.27936559834931207,-2.5129588045987687,-0.6828345034963166,5.54447021484375,3.00814453125,-1.18553466796875,-0.8937568618305922,-0.021571604829641825,-2.6011094366803915,4.85949462890625,-2.38783447265625,0.79754150390625,0.4492752758963674,1.3262542228594605,1.2167983020572037
1.31396,6.212680664062501,0.9867480468750001,2.84767822265625,0.18881812128661796,-2.5374598866274978,-0.7193198104304022,5.93725341796875,3.00095947265625,-0.8837622070312501,-1.2389025391048614,-0.05139900903852929,-2.8109665305786353,4.87865478515625,-2.20341796875,0.689765625,0.38029940366331516,1.3648700586656093,1.254615189536329
1.319776,5.59716064453125,1.21427490234375,2.62254638671875,-0.03115898475392708,-2.66289477397023,-0.7400924669330202,6.1935205078125,2.9291088867187502,-0.72090087890625,-1.509479705856912,-0.006391586616190171,-3.014964670078705,4.8068041992187505,-2.10043212890625,0.622705078125,0.27963191445832,1.3648700586656093,1.265001517787638
1.325588,5.30975830078125,1.00830322265625,2.519560546875,-0.24234765919721063,-2.890328731062997,-0.7741809288860344,6.23423583984375,2.7590625,-0.74964111328125,-1.6184029944411529,0.07243798165015528,-3.1774174965735384,4.8068041992187505,-2.059716796875,0.51013916015625,0.15393071100657996,1.30707946301089,1.2988236636316444
1.331404,5.206772460937501,0.680185546875,2.538720703125,-0.3470098900373247,-3.159840633379016,-0.8570052387874988,6.0977197265625005,2.4908203125,-0.737666015625,-1.649295663086072,0.16724651645697614,-3.3039176483523023,4.914580078125001,-1.9687060546875002,0.4358935546875,0.023968449810713142,1.2708604721858123,1.3225257973333495
1.337228,5.3887939453125,0.41194335937500004,2.66086669921875,-0.34780883836434845,-3.4445325539084863,-0.9795106489311437,5.79355224609375,2.19623291015625,-0.67060546875,-1.6434367086878976,0.23249396316391746,-3.428020955149995,4.9600854492187505,-1.85135009765625,0.37122802734375004,-0.1366201639210649,1.2727246849488678,1.3390373960918407
1.343028,5.63069091796875,0.28740234375,2.77103759765625,-0.286556133292526,-3.621366450289748,-1.1233213477954225,5.606740722656251,2.06690185546875,-0.60114990234375,-1.5851134808151623,0.24314660752423442,-3.547330571985545,5.010380859375,-1.7339941406250001,0.37601806640625,-0.2806971788943517,1.2865731226172799,1.3648700586656093
1.34884,5.819897460937501,0.26345214843750003,2.9698242187500004,-0.2138518355333628,-3.7683729424621215,-1.2389025391048614,5.50135986328125,2.07169189453125,-0.6251000976562501,-1.498827061496595,0.20746024891717263,-3.686880213105697,4.96248046875,-1.53520751953125,0.43110351562500004,-0.4410194765171218,1.317732107371207,1.3744574385898947
1.354656,5.87498291015625,0.28261230468750004,3.0273046875,-0.14381069886427883,-3.858121471197792,-1.352619517651245,5.460644531250001,2.2752685546875,-0.6682104492187501,-1.4349111953346934,0.16298545871284936,-3.820304583718667,4.8331494140625,-1.4705419921875,0.44068359375000005,-0.5792375370922342,1.3427658216179517,1.4026869461447347
1.360472,5.75044189453125,0.3688330078125,3.1255004882812503,-0.11158644967432006,-3.9151131185254875,-1.4378406725337805,5.400769042968751,2.538720703125,-0.64905029296875,-1.4474280524580658,0.1411475377741996,-3.945206838843383,4.722978515625,-1.4226416015625,0.41433837890625,-0.7219829715204814,1.3438310860539835,1.4154701193771149
1.36628,5.66422119140625,0.42870849609375,3.14466064453125,-0.09880327644193973,-3.9681100242180642,-1.4964302165155237,5.4390893554687505,2.7207421875,-0.6442602539062501,-1.492435474880405,0.1286306806508272,-4.042145902522267,4.667893066406251,-1.4130615234375001,0.45265869140625004,-0.8226504607254765,1.313737365736088,1.4285196087185033
1.372104,5.419929199218751,0.3592529296875,3.1326855468750003,-0.09427590258880501,-4.028031148744847,-1.5331818395586172,5.46782958984375,2.6800268554687503,-0.62031005859375,-1.5422365872648867,0.1456749116273343,-4.13162811514893,4.63915283203125,-1.4897021484375002,0.44068359375000005,-0.8812400047072197,1.2839099615272005,1.4298511892635428
1.377924,5.2858081054687505,0.28740234375,3.1374755859375,-0.0974716958969001,-4.089816486034685,-1.5425029033738946,5.419929199218751,2.6704467773437504,-0.5245092773437501,-1.5720639914737742,0.18429074743348325,-4.1777008020073,4.5936474609375,-1.5184423828125,0.41194335937500004,-0.9108010928070993,1.2522183445552577,1.4253238154104082
1.383736,5.18521728515625,0.22752685546875,3.15424072265625,-0.0940095864797971,-4.1590586743767455,-1.5523565994071877,5.1971923828125,2.5674609375,-0.46223876953125004,-1.6093482467348834,0.22370553156665599,-4.207528206216188,4.5601171875,-1.5471826171875,0.39996826171875,-0.9009473967738062,1.2189288309292672,1.4442322591499708
1.389548,5.1061816406250005,0.23231689453125,3.171005859375,-0.08415589044650391,-4.2306977076998775,-1.5297197301415142,5.13731689453125,2.48842529296875,-0.44786865234375,-1.6162724655690894,0.25273398744851966,-4.237355610425075,4.57209228515625,-1.4897021484375002,0.41194335937500004,-0.8921589651765447,1.2048140771518472,1.460211225690446
1.395372,5.07025634765625,0.16525634765625,3.17340087890625,-0.043409525768291574,-4.276237762340232,-1.5012239064776665,5.029541015625,2.4093896484375,-0.3113525390625,-1.596831389611511,0.25086977468546423,-4.279433555648327,4.56251220703125,-1.60226806640625,0.3209326171875,-0.8554073421334512,1.2037488127158156,1.450091213548145
1.401172,5.06546630859375,0.10538085937500001,3.1662158203125004,-0.010386328251309028,-4.3010051604779695,-1.4623417545625095,5.027145996093751,2.45489501953125,-0.32572265625,-1.5694008303836948,0.25486451632058305,-4.293814625534755,4.569697265625,-1.6357983398437501,0.40236328125000004,-0.803742016985914,1.1827098401041896,1.4197311771212417
1.407004,4.94571533203125,0.0718505859375,3.1566357421875,0.026631610900792378,-4.3172504431274525,-1.4141385388320753,4.888234863281251,2.53153564453125,-0.29937744140625,-1.5491608060990927,0.26684874122593966,-4.3034020054590405,4.51940185546875,-1.67890869140625,0.3975732421875,-0.7504787951843293,1.1696603507628012,1.3723269097178312
1.412816,5.03672607421875,0.03592529296875,3.19735107421875,0.07456851052221866,-4.307929379312175,-1.3622068975755302,4.8403344726562505,2.52195556640625,-0.28021728515625,-1.5411713228288548,0.2889529782735973,-4.312723069274318,4.55293212890625,-1.66693359375,0.39038818359375,-0.6631271114297302,1.156344545312405,1.3576795237223955
1.418628,4.97924560546875,0.0814306640625,3.2428564453125,0.12197277792562909,-4.2807651361933665,-1.3118731529730325,4.84512451171875,2.47166015625,-0.18920654296875,-1.5355786845396886,0.2825613916574071,-4.343349421810229,4.581672363281251,-1.6525634765625001,0.28021728515625,-0.5531385584094577,1.1717908796348646,1.3635384781205697
1.424456,4.895419921875,0.07424560546875,3.2189062500000003,0.16618125202094444,-4.256530370273646,-1.2532836089912893,4.6942382812500005,2.5626708984375,-0.18441650390625,-1.4801849338660404,0.28948561049161314,-4.358263123914672,4.5744873046875005,-1.57831787109375,0.3209326171875,-0.4346278899009316,1.195226697227562,1.3305152806035871
1.430268,4.83075439453125,0.18681152343750002,3.1757958984375003,0.20453077171808548,-4.236822978207059,-1.1973572260996252,4.6942382812500005,2.67523681640625,-0.26584716796875,-1.429318557045527,0.2665824251169317,-4.375041038782172,4.50503173828125,-1.6429833984375002,0.296982421875,-0.3171824858284372,1.2080098704599422,1.3230584295513654
1.436068,4.665498046875,0.25387207031250003,3.10155029296875,0.20453077171808548,-4.2381545587520995,-1.1486213781511754,4.742138671875,2.7327172851562502,-0.30177246093750004,-1.3973606239645762,0.2649845284628842,-4.373176826019116,4.461921386718751,-1.7028588867187502,0.28979736328125,-0.1645833553668969,1.205613025478871,1.3164005268261674
1.441888,4.581672363281251,0.29937744140625,2.93389892578125,0.1970739206658636,-4.257861950818685,-1.1089402779089947,4.68226318359375,2.62733642578125,-0.335302734375,-1.3563479431773557,0.2932140360177241,-4.357464175587649,4.5265869140625,-1.7028588867187502,0.3065625,-0.06151902118083039,1.2106730315500216,1.3092099918829534
1.4477,4.5409570312500005,0.3209326171875,2.835703125,0.17923074136233272,-4.288754619463605,-1.0692591776668139,4.53856201171875,2.58901611328125,-0.33769775390625,-1.338771079982833,0.3225088080085957,-4.32523992639769,4.43318115234375,-1.7100439453125,0.21076171875000002,0.05273058958356891,1.1938951166825222,1.320395268461286
1.4535,4.53377197265625,0.27063720703125,2.78540771484375,0.1624528264948335,-4.335626254648999,-1.0476875728371722,4.4307861328125,2.54111572265625,-0.296982421875,-1.3078784113379136,0.3491404189093881,-4.290885148335668,4.4212060546875005,-1.72201904296875,0.239501953125,0.16378440703987313,1.1760519373789915,1.3012205086127155
1.459316,4.512216796875,0.22034179687500002,2.7207421875,0.171241258092095,-4.372644193801101,-1.0221212263724115,4.320615234375,2.5171655273437503,-0.24189697265625001,-1.2711267882948203,0.3616572760327605,-4.2645198535438835,4.34696044921875,-1.829794921875,0.239501953125,0.25806030962867815,1.1611382352745476,1.2977583991956125
1.465128,4.54335205078125,0.19878662109375,2.6393115234375,0.20186761062800623,-4.413390558479313,-1.005875943722928,4.29427001953125,2.4525,-0.21794677734375,-1.2072109221329186,0.37310886872010124,-4.251470364202495,4.378095703125,-1.7890795898437502,0.23231689453125,0.363521488795816,1.1507519070232386,1.268197311095733
1.470936,4.5457470703125,0.14130615234375002,2.6105712890625,0.2407497625431631,-4.4301684733468125,-0.9912285577274923,4.1817041015625005,2.4764501953125,-0.23710693359375,-1.1278487216485573,0.3741741331561329,-4.240817719842179,4.3828857421875,-1.82021484375,0.24908203125,0.4937500661006907,1.1435613720800246,1.2362393780147822
1.476744,4.57688232421875,0.17004638671875,2.63212646484375,0.2822950755483992,-4.438956904944074,-0.9691243206798347,4.1481738281250005,2.615361328125,-0.22273681640625,-1.0314422901876887,0.377369926464228,-4.234958765444004,4.39007080078125,-1.7339941406250001,0.28740234375,0.5981459808317968,1.1400992626629218,1.2221246242373622
1.48256,4.55772216796875,0.1676513671875,2.54590576171875,0.31105721532125497,-4.430701105564828,-0.925981111020551,4.0954833984375005,2.692001953125,-0.26345214843750003,-0.9731190623149535,0.3579288505066496,-4.229898759372854,4.33738037109375,-1.6429833984375002,0.25626708984375,0.6892260901125068,1.160605603056532,1.2072109221329186
1.488368,4.55293212890625,0.1772314453125,2.529140625,0.34221620007518205,-4.420314777313519,-0.8831042174702752,3.9996826171875,2.6776318359375,-0.19399658203125,-0.9448895547601136,0.37337518482910914,-4.2205776955575764,4.25115966796875,-1.5663427734375002,0.28979736328125,0.7432882602411153,1.1369034693548266,1.1579424419664526
1.494184,4.57209228515625,0.1293310546875,2.5099804687500002,0.36778254653994275,-4.410194765171218,-0.8223841446164687,3.9038818359375003,2.7590625,-0.17962646484375,-0.904675822299917,0.36911412708498237,-4.224572437192695,4.29906005859375,-1.5184423828125,0.27542724609375,0.7382282541699647,1.107608697363955,1.128913986084589
1.5,4.72537353515625,0.16525634765625,2.5004003906250003,0.41039312398121053,-4.371578929365069,-0.751011427402345,4.00447265625,2.8524682617187502,-0.12693603515625002,-0.8431568011190868,0.3752393975921646,-4.215251373377417,4.23678955078125,-1.4681469726562502,0.24189697265625001,0.7438208924591311,1.0833739314442339,1.0849718280982814
1.505812,4.8403344726562505,0.17962646484375,2.4572900390625003,0.4511394886594229,-4.323109397525627,-0.6886934578944909,4.00447265625,3.03448974609375,-0.1772314453125,-0.7629956523077016,0.3720436042840695,-4.216316637813449,4.17930908203125,-1.29091552734375,0.29937744140625,0.7142598043592516,1.031175974078681,1.0620686427236001
1.511628,4.96966552734375,0.21555175781250002,2.3902294921875002,0.48416268617640545,-4.267449330742971,-0.632500758893819,3.956572265625,3.13987060546875,-0.29219238281250004,-0.6647250080837778,0.3725762365020854,-4.227235598282774,4.19367919921875,-1.2981005859375,0.34727783203125,0.674312388008063,1.0106696336850707,1.0298443935336412
1.517452,5.007985839843751,0.2347119140625,2.22497314453125,0.4964132271907699,-4.239752455406147,-0.580036485419258,3.97333740234375,3.18777099609375,-0.28500732421875,-0.6447512999081835,0.3725762365020854,-4.226170333846743,4.09787841796875,-1.44898681640625,0.4167333984375,0.6447512999081835,0.9227853177124559,1.002413834305825
1.523252,5.05828125,0.26105712890625,2.14354248046875,0.5105279809681899,-4.235757713771028,-0.5315669535798159,4.00447265625,3.11113037109375,-0.22513183593750002,-0.660730266448659,0.3757720298101805,-4.238953507079123,4.14577880859375,-1.580712890625,0.50055908203125,0.5760417437841392,0.8799084241621802,0.9827064422392388
1.529064,5.1995874023437505,0.3592529296875,2.040556640625,0.5243764186366019,-4.27011249183305,-0.4703142485079934,4.0380029296875,3.1662158203125004,-0.20836669921875,-0.5885586009075116,0.36751623043093484,-4.26878091128801,4.17930908203125,-1.66693359375,0.45744873046875,0.5163869353663643,0.8207862479624211,0.9691243206798347
1.53488,5.3887939453125,0.45265869140625004,1.77949951171875,0.499609020498865,-4.320446236435547,-0.38802257082454494,4.01165771484375,3.3482373046875002,-0.19399658203125,-0.4804342606502945,0.32730249797073835,-4.302869373241024,4.0619531250000005,-1.638193359375,0.41433837890625,0.3728425526110933,0.7139934882502437,0.9552758830114226
1.54068,5.508544921875,0.3496728515625,1.599873046875,0.4522047530954546,-4.385427367033481,-0.3158509052833976,4.0236328125,3.5087036132812504,-0.239501953125,-0.4218447166685513,0.2990729904158984,-4.311657804838286,4.1433837890625,-1.638193359375,0.45026367187500005,0.1981391851018953,0.730505087008735,0.9270463754565826
1.546496,5.57560546875,0.143701171875,1.53520751953125,0.47750478345120734,-4.4714474702430405,-0.2553971485385989,4.10745849609375,3.5350488281250003,-0.3448828125,-0.43382894157390783,0.321443543572564,-4.348143111772371,4.196074218750001,-1.7555493164062501,0.47900390625,0.10705907582118536,0.6820355551692928,0.8897621201954734
1.55232,5.5708154296875,-0.047900390625000004,1.3915063476562501,0.5643238349877905,-4.578772862173234,-0.19867181731991115,4.0284228515625005,3.3985327148437503,-0.39278320312500004,-0.46951530018096965,0.38242993253537855,-4.4149884551333605,4.06434814453125,-1.76033935546875,0.5029541015625,-0.0010652644360316951,0.6828345034963166,0.8812400047072197
1.55814,5.4726196289062505,-0.10777587890625001,1.389111328125,0.6846987162593721,-4.693821421264657,-0.14753912439038977,3.9110668945312503,3.29315185546875,-0.316142578125,-0.41358891728930564,0.44607948258827235,-4.4714474702430405,4.01165771484375,-1.7196240234375,0.44307861328125003,-0.1030643341860665,0.6916229350935781,0.8522115488253561
1.563952,5.4558544921875,-0.07903564453125,1.3531860351562501,0.7994809592417872,-4.806739451484017,-0.09614011535186048,3.7146752929687503,3.3626074218750004,-0.38320312500000003,-0.331829871823873,0.4277036710667256,-4.519917002082482,4.076323242187501,-1.7866845703125,0.46223876953125004,-0.16538230369392068,0.6380933971829854,0.8362325822848807
1.569768,5.4390893554687505,0.047900390625000004,1.2765454101562501,0.8532768132613878,-4.881574278115243,-0.025033714246744835,3.60929443359375,3.46080322265625,-0.42391845703125003,-0.25806030962867815,0.4247741938676384,-4.555869676798552,3.975732421875,-1.80823974609375,0.40475830078125,-0.16271914260384143,0.6298375978037397,0.8263788862515875
1.57558,5.46303955078125,0.16046630859375,1.36037109375,0.8519452327163481,-4.939897505987978,0.06631271114297302,3.5182836914062503,3.5110986328125002,-0.17483642578125,-0.23329291149094122,0.43942157986307423,-4.578772862173234,3.99249755859375,-1.73638916015625,0.3975732421875,-0.17976337358034855,0.667388169173857,0.8298409956686905
1.581392,5.41034912109375,0.143701171875,1.3268408203125002,0.8586031354415463,-4.959072265836549,0.16192019427681767,3.5494189453125,3.5015185546875003,0.0622705078125,-0.14647385995435808,0.3997404796208936,-4.618720278524422,3.79610595703125,-1.59747802734375,0.4071533203125,-0.23116238261887784,0.6101302057371534,0.8005462236778189
1.587216,5.3887939453125,0.1389111328125,1.37953125,0.8439557494461105,-4.983573347865278,0.26019083850074154,3.4320629882812503,3.6116894531250003,0.011975097656250001,0.05725796343670361,0.366717282103911,-4.652009792150412,4.069138183593751,-1.8321899414062501,0.54366943359375,-0.2772350694772487,0.576574376002155,0.6964166250557207
1.593028,5.3792138671875005,0.01916015625,1.3555810546875,0.8535431293703958,-4.987568089500397,0.34940673501839603,3.35063232421875,3.5709741210937502,-0.1149609375,0.24714134915935326,0.3265035496437146,-4.671717184216999,4.09787841796875,-1.9519409179687501,0.51971923828125,-0.24873924581340082,0.576574376002155,0.6253102239506051
1.598836,5.386398925781251,-0.0335302734375,1.4178515625,0.9044095061909092,-4.990231250590476,0.44421526982521686,3.3554223632812503,3.3985327148437503,-0.20357666015625,0.3515372638904594,0.33662356178601566,-4.677309822506166,4.05955810546875,-1.96631103515625,0.5269042968750001,-0.21118867444328357,0.573112266585052,0.5933522908696542
1.604668,5.4127441406250005,-0.08382568359375,1.3747412109375001,0.974716958969001,-4.972388071286945,0.5510080295373944,3.2620166015625003,3.3123120117187503,-0.07424560546875,0.4231762972135909,0.3411509356391504,-4.696218266245728,3.93501708984375,-1.9974462890625,0.5484594726562501,-0.21438446775137865,0.5374259079779902,0.562725938333743
1.610484,5.479804687500001,-0.009580078125,1.3316308593750001,1.0335728190597522,-4.956675420855477,0.6546049959414767,3.1590307617187503,3.4655932617187504,-0.047900390625000004,0.5600627772436637,0.293480352126732,-4.720453032165449,3.899091796875,-2.09564208984375,0.5843847656250001,-0.20959077778923602,0.4748416223611281,0.5249090508546178
1.616284,5.606740722656251,0.1197509765625,1.32444580078125,1.0665960165767348,-4.91273326286917,0.7587345945635748,3.13508056640625,3.7218603515625004,-0.14609619140625002,0.7177219137763546,0.23382554370895708,-4.731105676525766,3.9422021484375,-2.19144287109375,0.6035449218750001,-0.20240024284602207,0.42264366499557504,0.5012069171529125
1.622116,5.57560546875,0.13412109375,1.26217529296875,1.0780476092640754,-4.873584794845005,0.8335694211948015,3.18298095703125,3.9613623046875004,-0.38080810546875005,0.814394661346231,0.19973708175594285,-4.737230947032948,3.9613623046875004,-2.24173828125,0.57240966796875,-0.16165387816780974,0.37124465595704575,0.4703142485079934
1.627924,5.431904296875,0.18441650390625,1.18553466796875,1.0855044603162973,-4.842692126200086,0.8620652448586493,3.17819091796875,3.82005615234375,-0.4550537109375,0.8125304485831755,0.2218413188036005,-4.752943597464416,4.016447753906251,-2.3231689453125,0.45026367187500005,-0.11451592687340723,0.3438140967292296,0.4500742242233912
1.633724,5.182822265625,0.32332763671875003,1.120869140625,1.0894992019514163,-4.834702642929848,0.8737831536549979,2.9530590820312503,3.6212695312500003,-0.35685791015625,0.7717840839049631,0.23995081421613934,-4.764661506260764,4.0236328125,-2.375859375,0.20836669921875,-0.031425300862935004,0.34967305112740393,0.4793689962142628
1.63954,4.89781494140625,0.335302734375,1.0921289062500001,1.0852381442072894,-4.813131038100207,0.8716526247829346,2.711162109375,3.4584082031250003,-0.23710693359375,0.765126181179765,0.21092235833427564,-4.78836363996247,3.975732421875,-2.174677734375,0.36643798828125,0.12570120345174002,0.43542683822795536,0.48416268617640545
1.645352,4.6271777343750005,0.42870849609375,1.09931396484375,1.0588728494155049,-4.804875238720961,0.8570052387874988,2.5770410156250003,3.42727294921875,-0.21794677734375,0.8125304485831755,0.15366439489757203,-4.7888962721804855,4.016447753906251,-2.1243823242187503,0.40475830078125,0.2862898171835181,0.5020058654799363,0.48229847341334997
1.651164,4.378095703125,0.48379394531250003,1.0921289062500001,1.0181264847372926,-4.784102582218343,0.8362325822848807,2.53632568359375,3.37937255859375,-0.15567626953125,0.8298409956686905,0.11185276578332799,-4.778509943929176,3.9541772460937503,-1.8920654296875001,0.51013916015625,0.3920173124596638,0.5081311359871186,0.4412857926261297
1.656984,4.0859033203125,0.49097900390625004,1.0777587890625,0.9789780167131278,-4.760666764625646,0.831438892322738,2.3902294921875002,3.31470703125,-0.11017089843750001,0.8298409956686905,0.09587379924285257,-4.751878333028384,3.9422021484375,-1.7028588867187502,0.5748046875,0.440220528190098,0.5195827286744593,0.41039312398121053
1.662792,3.82005615234375,0.49576904296875,1.1352392578125001,0.9430253419970581,-4.7255130382366,0.8250473057065478,2.24173828125,3.2284863281250002,-0.11735595703125,0.8154599257822627,0.08468852266451976,-4.713528813331243,3.8703515625000002,-1.6645385742187502,0.46702880859375,0.4013383762749411,0.5038700782429918,0.37124465595704575
1.6686,3.5446289062500003,0.42870849609375,1.1903247070312502,0.9254484788025351,-4.6847666735583875,0.8354336339578569,2.16270263671875,3.0919702148437502,-0.10059082031250001,0.7992146431327792,0.05912217619975908,-4.637628722263985,3.8368212890625,-1.619033203125,0.55564453125,0.3922836285686717,0.4894890083565639,0.33502566513196813
1.674408,3.3051269531250003,0.33769775390625,1.25259521484375,0.9278453237836065,-4.629905555102755,0.8612662965316256,2.02858154296875,2.93868896484375,0.07424560546875,0.7699198711419076,0.04713795129440251,-4.563592843959782,3.87274658203125,-1.56394775390625,0.62989013671875,0.36245622435978425,0.496146911081762,0.2806971788943517
1.680224,3.17819091796875,0.296982421875,1.3412109375,0.9408948131249947,-4.547347561310299,0.8950884423756318,1.9519409179687501,2.89078857421875,0.09819580078125001,0.7462177374402025,0.015978966540475426,-4.469849573588993,3.8703515625000002,-1.53520751953125,0.6945556640625,0.3613909599237526,0.4825647895223579,0.2532666196665355
1.686032,3.1470556640625,0.35206787109375004,1.4705419921875,0.9619337857366207,-4.437891640508042,0.9669937918077712,1.9040405273437502,2.8428881835937503,0.1676513671875,0.7829693604832959,-0.008522115488253561,-4.3761063032182035,3.81526611328125,-1.4513818359375001,0.74006103515625,0.3576625343976416,0.43888894764505837,0.2229065832396322
1.691844,3.05364990234375,0.39278320312500004,1.4609619140625,0.9598032568645574,-4.283694613392454,1.0460896761831247,1.8729052734375,2.88120849609375,0.143701171875,0.8799084241621802,-0.024234765919721065,-4.2645198535438835,3.8583764648437504,-1.56394775390625,0.65384033203125,0.3281014462977621,0.35473305719855447,0.17204020641911877
1.69766,2.84767822265625,0.4646337890625,1.4513818359375001,0.9384979681439234,-4.145476552817342,1.1140002839801453,1.76512939453125,2.8788134765625,0.06466552734375,0.9163937310962658,-0.054062170128608526,-4.151868139433532,3.899091796875,-1.7459692382812502,0.5460644531250001,0.24900556192240875,0.3012035192879618,0.14088122166519168
1.703476,2.6129663085937502,0.5125341796875,1.4226416015625,0.904675822299917,-4.000334273408023,1.1768508857060151,1.71722900390625,2.7925927734375002,0.03113525390625,0.9022789773188458,-0.05566006678265607,-4.007258492242229,3.96854736328125,-1.88009033203125,0.59156982421875,0.25033714246744837,0.27616980504121696,0.09267800593475747
1.709288,2.3614892578125,0.55564453125,1.3962963867187501,0.891093700740513,-3.8629151611599344,1.2002867032987126,1.5831079101562502,2.6680517578125,0.045505371093750004,0.8745821019820217,-0.04953479627547382,-3.854659361780689,3.89190673828125,-1.9639160156250002,0.5700146484375,0.262055051263797,0.2921487715816924,0.06338323394388586
1.715104,2.11001220703125,0.62031005859375,1.39869140625,0.8604673482046018,-3.7329528999640678,1.1946940650095461,1.5112573242187501,2.51237548828125,0.07903564453125,0.8625978770766651,-0.02024002428460221,-3.6711675626742295,3.84879638671875,-1.8705102539062501,0.5843847656250001,0.28016454667633583,0.29294771990871615,0.03515372638904594
1.720904,1.97110107421875,0.67300048828125,1.3747412109375001,0.8367652145028965,-3.5923379944078837,1.1664645574547061,1.389111328125,2.4285498046875,0.06945556640625,0.8825715852522594,-0.03275688140797463,-3.518302116103681,3.83921630859375,-1.7675244140625002,0.59635986328125,0.3451456772742692,0.27963191445832,0.02450108202872899
1.72672,1.80344970703125,0.83107177734375,1.41545654296875,0.7765777738671058,-3.427754639040987,1.107608697363955,1.2334350585937501,2.3974145507812503,0.03113525390625,0.8950884423756318,-0.03861583580614895,-3.351055599646705,3.80568603515625,-1.7076489257812502,0.63228515625,0.4029362729289887,0.2407497625431631,0.020506340393610132
1.732536,1.74357421875,0.91729248046875,1.44898681640625,0.6945524122926652,-3.278883934105558,1.038100192912887,1.17595458984375,2.3974145507812503,0.01676513671875,0.8495483877352769,-0.06578007892495717,-3.1672974844312374,3.9278320312500004,-1.7507592773437501,0.59635986328125,0.45859633971164476,0.24234765919721063,0.0223705531566656
1.738364,1.68848876953125,0.9675878906250001,1.53041748046875,0.6098638896281454,-3.078614220131599,0.9406284970159868,1.11847412109375,2.404599609375,0.01916015625,0.7843009410283356,-0.05805691176372738,-2.976881466490572,3.8272412109375002,-1.657353515625,0.6945556640625,0.47537425457914395,0.25246767133951176,0.003728425526110933
1.744172,1.53041748046875,0.9723779296875,1.56873779296875,0.5376922240869981,-2.8525118435838714,0.8114651841471437,0.996328125,2.4189697265625,-0.026345214843750003,0.6825681873873086,-0.0660463950339651,-2.768355953137368,3.8416113281250004,-1.65495849609375,0.6873706054687501,0.4655205585458508,0.2623213673728049,-0.006391586616190171
1.749992,1.389111328125,0.9627978515625001,1.6956738281250001,0.47643951901517567,-2.623746305946065,0.6799050262972294,0.98914306640625,2.38783447265625,-0.009580078125,0.5677859444048935,-0.07217166554114735,-2.540389363826585,3.7817358398437504,-1.5950830078125,0.756826171875,0.43356262546489993,0.23995081421613934,-0.03595267471606971
1.755812,1.2597802734375,0.996328125,1.7100439453125,0.408795227327163,-2.379800750094807,0.5358280113239426,0.9412426757812501,2.3423291015625,-0.011975097656250001,0.4703142485079934,-0.06444849837991756,-2.31268909062481,3.72904541015625,-1.62142822265625,0.8478369140625001,0.3760383459191884,0.2253034282207035,-0.07882956826634543
1.76162,1.082548828125,1.05620361328125,1.6525634765625001,0.32836776240677,-2.1441109936227942,0.4032025890379966,0.9843530273437501,2.366279296875,-0.0047900390625,0.3464772578193088,-0.047936899621426284,-2.0740698569537104,3.7889208984375,-1.6693286132812502,0.8837622070312501,0.33316145236891265,0.17283915474614253,-0.10918960469324875
1.767452,0.93645263671875,1.12326416015625,1.6813037109375002,0.24394555585125818,-1.9283949453263762,0.27110979897006643,0.95082275390625,2.3207739257812503,0.01676513671875,0.2218413188036005,-0.03222424918995878,-1.83811378437269,3.822451171875,-1.76033935546875,0.8430468750000001,0.314519324738358,0.17390441918217422,-0.1275654162147955
1.773264,0.8813671875000001,1.10410400390625,1.7459692382812502,0.1523328143525324,-1.6865799183471812,0.13582121559404112,0.9196875,2.308798828125,0.02155517578125,0.0985369603329318,-0.013582121559404112,-1.5976303379385348,3.8272412109375002,-1.80823974609375,0.8023315429687501,0.3137203764113342,0.1778991608172931,-0.1443433310822947
1.779076,0.83586181640625,1.06099365234375,1.8106347656250001,0.07323692997717904,-1.439704885296836,-0.003994741635118856,0.93645263671875,2.22976318359375,0.023950195312500002,-0.041811629114244034,-0.0013315805450396189,-1.3544837304143003,3.8176611328125003,-1.81302978515625,0.7831713867187501,0.32437302077165114,0.1579254526416988,-0.16538230369392068
1.7849,0.75922119140625,0.996328125,1.8657202148437502,0.0066579027251980945,-1.1930961683554986,-0.13954964112015206,0.91729248046875,2.0740869140625002,0.050295410156250005,-0.16085492984078598,0.0223705531566656,-1.1060108007099074,3.7913159179687503,-1.8537451171875001,0.74006103515625,0.2788329661312962,0.1970739206658636,-0.15472965933360372
1.790712,0.7424560546875001,0.9340576171875,1.9639160156250002,-0.03648530693408556,-0.9217200532764243,-0.25273398744851966,0.93884765625,1.9782861328125,0.052690429687500005,-0.2623213673728049,0.05912217619975908,-0.8578041871145226,3.8104760742187502,-1.82021484375,0.8047265625000001,0.2846919205294705,0.21198762277030733,-0.15206649824352447
1.79652,0.74964111328125,0.8622070312500001,1.96152099609375,-0.06471481448892548,-0.6495449898703262,-0.34940673501839603,0.91729248046875,1.92799072265625,0.09101074218750001,-0.32170985968157195,0.07297061386817112,-0.6048038835569949,3.822451171875,-1.80823974609375,0.74964111328125,0.2772350694772487,0.2372876531260601,-0.13582121559404112
1.802336,0.77359130859375,0.814306640625,2.0645068359375003,-0.07696535550328998,-0.35553200552557823,-0.4143878656163294,0.9651928710937501,1.8609301757812502,0.09101074218750001,-0.36964675930299823,0.1041295986220982,-0.3462109417103009,3.8464013671875,-1.8106347656250001,0.6945556640625,0.24820661359538496,0.20319919117304586,-0.12809804843281133
1.808148,0.75443115234375,0.6514453125,2.10043212890625,-0.06657902725198095,-0.06285060172587001,-0.4593952880386685,1.0106982421875002,1.80344970703125,0.11735595703125,-0.3872236224975212,0.15259913046154033,-0.07776430383031374,3.8607714843750003,-1.7962646484375,0.69695068359375,0.20346550728205376,0.1725728386371346,-0.11957593294455778
1.813948,0.7999365234375,0.53887939453125,2.12677734375,-0.032490565298966705,0.22130868658558467,-0.47564057068815185,1.06099365234375,1.753154296875,0.1484912109375,-0.3898867835876004,0.20532972004510924,0.18269285077943573,3.8655615234375,-1.77470947265625,0.6658154296875001,0.16032229762277012,0.12383699068868456,-0.10439591473110613
1.819764,0.8646020507812501,0.42870849609375,2.12917236328125,0.028762139772855768,0.4913532211196194,-0.46871635185394583,1.08494384765625,1.6741186523437501,0.15088623046875002,-0.34993936723641184,0.26684874122593966,0.44394895371620896,3.8655615234375,-1.7842895507812502,0.6179150390625,0.1041295986220982,0.09214537371674163,-0.08548747099154354
1.825576,0.9053173828125001,0.32332763671875003,2.12917236328125,0.12596751956074795,0.7808388316112326,-0.4319647288108524,1.1543994140625,1.5950830078125,0.18920654296875,-0.28016454667633583,0.3430151484022058,0.6966829411647286,3.899091796875,-1.8154248046875001,0.63468017578125,0.04554005464035497,0.0492684801664659,-0.06205165339884624
1.831384,0.8622070312500001,0.3209326171875,2.078876953125,0.19387812735776852,1.044758095638085,-0.37310886872010124,1.2166699218750001,1.56394775390625,0.1676513671875,-0.18482337965149911,0.40373522125601247,0.9424927097790423,3.8607714843750003,-1.839375,0.6083349609375001,-0.0167779148674992,0.013848437668412037,-0.030626352535911235
1.837192,0.91250244140625,0.27542724609375,2.0142114257812502,0.2652508445718921,1.2903015481433908,-0.28948561049161314,1.2693603515625,1.5711328125000001,0.19639160156250002,-0.08202536157444053,0.4556668625125576,1.1899003750474035,3.8440063476562503,-1.9303857421875001,0.5604345703125,-0.06791060779702056,-0.012250541014364494,0.018642127630554665
1.843004,0.95561279296875,0.19878662109375,2.0070263671875,0.3438140967292296,1.5275892012694507,-0.18775285685058626,1.3460009765625,1.4849121093750002,0.2682421875,0.03595267471606971,0.5155879870393405,1.4160027515951308,3.8368212890625,-1.9687060546875002,0.55803955078125,-0.08255799379245637,-0.02370213370170522,0.07536745884924242
1.848816,1.063388671875,0.143701171875,2.0453466796875,0.4301005160477969,1.7667410671585664,-0.0772316716122979,1.389111328125,1.5064672851562502,0.22752685546875,0.1723065225281267,0.5595301450256479,1.6551546174842464,3.8272412109375002,-1.97589111328125,0.56282958984375,-0.07243798165015528,-0.02956108809987954,0.1265001517787638
1.854628,1.1879296875,0.06945556640625,2.0836669921875,0.5294364247077524,1.9896476503981986,0.04154531300523611,1.4705419921875,1.51365234375,0.21315673828125,0.3259709174256987,0.6202502178794544,1.8841864712310608,3.81287109375,-1.9782861328125,0.5676196289062501,-0.04207794522325196,-0.05086637682051344,0.19307917903074473
1.860456,1.3412109375,-0.0431103515625,2.0836669921875,0.6383597132919933,2.2351911029035043,0.1624528264948335,1.52562744140625,1.4849121093750002,0.258662109375,0.4833637378493817,0.6695186980459203,2.0985709389824394,3.8368212890625,-2.0046313476562503,0.5891748046875,-0.0018642127630554665,-0.0671116594699968,0.2519350391214959
1.866268,1.504072265625,-0.11017089843750001,2.1124072265625,0.7496798468573055,2.4650219049773425,0.28602350107451013,1.6094531250000002,1.4729370117187501,0.19399658203125,0.68496503236838,0.7147924365772674,2.3148196194968733,3.8607714843750003,-2.1028271484375,0.54366943359375,0.019174759848570512,-0.10253170196805066,0.296942461543835
1.872084,1.6813037109375002,-0.1580712890625,2.1842578125000003,0.8772452630721009,2.7031085064304263,0.412257336744266,1.6813037109375002,1.4681469726562502,0.15567626953125,0.897751603465711,0.7605988073266303,2.5244103972861094,3.85358642578125,-2.08845703125,0.55803955078125,0.035686358607061784,-0.13555489948503321,0.33688987789502356
1.8779,1.79865966796875,-0.18681152343750002,2.2177880859375003,0.9978864604526905,2.948119326717716,0.5472796040112834,1.83697998046875,1.5495776367187502,0.16525634765625,1.1060108007099074,0.8024104364408744,2.721750634060981,3.8751416015625,-2.10522216796875,0.5700146484375,0.03994741635118857,-0.15366439489757203,0.36938044319399027
1.8837,1.9016455078125,-0.19878662109375,2.2106030273437502,1.1094729101270104,3.1617048461420714,0.6823018712783008,1.93757080078125,1.5567626953125,0.1197509765625,1.310275256318985,0.8426241689010708,2.9190908708358525,3.9014868164062504,-2.1243823242187503,0.613125,0.032490565298966705,-0.17923074136233272,0.3906857319146242
1.889512,1.9782861328125,-0.25626708984375,2.222578125,1.2199940953652988,3.368898778950236,0.8223841446164687,1.9902612304687501,1.6142431640625001,0.08861572265625,1.5081481253118725,0.8719189408919424,3.0999195088522327,3.89190673828125,-2.0932470703125,0.5604345703125,0.0111852765783328,-0.18828548906860212,0.4098604917631947
1.895328,2.040556640625,-0.239501953125,2.2106030273437502,1.3342437061296981,3.5555863713647904,0.9664611595897554,2.08606201171875,1.67890869140625,0.045505371093750004,1.6985641432525378,0.9004147645557903,3.2647691803281376,3.9182519531250004,-2.059716796875,0.60114990234375,-0.00985369603329318,-0.19947076564693492,0.4199805039054958
1.901128,2.1315673828125,-0.27303222656250004,2.2177880859375003,1.425856447628424,3.7161749850965684,1.0988202657666934,2.212998046875,1.7100439453125,0.011975097656250001,1.8753980396337993,0.9334379620727729,3.4237598974058683,3.9445971679687504,-2.06690185546875,0.63228515625,-0.0223705531566656,-0.19627497233883984,0.4343615737919237
1.906932,2.3135888671875002,-0.27063720703125,2.2944287109375003,1.510012338074928,3.8900794042787425,1.2431635968489883,2.3040087890625003,1.7938696289062501,0.045505371093750004,2.0168118935170067,0.9776464361680882,3.6530580672616906,3.93980712890625,-2.0166064453125,0.7065307617187501,-0.06364955005289379,-0.2170476288414579,0.4343615737919237
1.912752,2.4740551757812503,-0.28979736328125,2.38304443359375,1.5931029640854,4.052798546882584,1.3899037729123542,2.45489501953125,1.8657202148437502,-0.08382568359375,2.2138858141828703,1.0154633236472135,3.819505635391643,3.9230419921875,-2.0357666015625,0.7280859375000001,-0.08681905153658315,-0.26924558620701095,0.42796998717573353
1.918572,2.6872119140625,-0.29219238281250004,2.35909423828125,1.6799220156219832,4.222974540538647,1.5214639307622686,2.60578125,2.02858154296875,-0.13651611328125002,2.3989755099433774,1.0383665090218948,3.9753005591612784,3.9374121093750003,-2.0740869140625002,0.7232958984375001,-0.10839065636622498,-0.30413299648704895,0.4154531300523611
1.924384,2.9099487304687504,-0.25147705078125,2.4908203125,1.7491642039640434,4.379035780417291,1.642105128142858,2.682421875,2.1842578125000003,-0.22513183593750002,2.544117789352696,1.0583402171974892,4.128698637949842,4.01165771484375,-2.1842578125000003,0.689765625,-0.1331580545039619,-0.3267698657527225,0.3917509963506559
1.930204,3.06802001953125,-0.16525634765625,2.5626708984375,1.8181400761970956,4.539890710258077,1.7289241796794412,2.87162841796875,2.36867431640625,-0.29937744140625,2.6676884639323726,1.0990865818757014,4.28422724561047,3.9709423828125003,-2.23934326171875,0.7065307617187501,-0.10652644360316951,-0.3472762061463326,0.3757720298101805
1.936028,3.247646484375,0.00718505859375,2.57943603515625,1.8540927509131653,4.696484582354736,1.7707358087936853,2.94347900390625,2.529140625,-0.4358935546875,2.7582359409950667,1.0993528979847094,4.432032686109868,3.994892578125,-2.2944287109375003,0.7616162109375001,-0.11478224298241516,-0.38349519697141027,0.35633095385260205
1.94184,3.3985327148437503,0.258662109375,2.59859619140625,1.8373148360456661,4.844556338963142,1.7880463558792004,3.0464648437500004,2.7830126953125003,-0.5077441406250001,2.7893949257489936,1.125185560558478,4.582234971590337,3.96615234375,-2.3231689453125,0.7280859375000001,-0.115314875200431,-0.41678471059740074,0.33981935509411076
1.947664,3.55660400390625,0.4358935546875,2.682421875,1.7638115899594793,4.983040715647262,1.7526263133811464,3.14466064453125,3.0464648437500004,-0.5867797851562501,2.781671758587764,1.135305572700779,4.728708831544695,4.07871826171875,-2.28005859375,0.775986328125,-0.13582121559404112,-0.4245078777586305,0.3270361818617304
1.953476,3.6476147460937502,0.53887939453125,2.69918701171875,1.6647419974085316,5.113269292952137,1.6788567511859516,3.247646484375,3.27638671875,-0.737666015625,2.6724821538945154,1.1337076760467315,4.865595311574768,4.0475830078125,-2.35909423828125,0.8646020507812501,-0.10093380531400312,-0.4162520783793849,0.30519826092308067
1.95928,3.78652587890625,0.71132080078125,2.7901977539062504,1.5323828912315935,5.229649432588599,1.5214639307622686,3.3458422851562504,3.515888671875,-0.8095166015625,2.5007082635844045,1.1414308432079614,5.014466016510197,4.19367919921875,-2.47166015625,0.9580078125,-0.05166532514753722,-0.4119910206352581,0.2953445648897875
1.965112,3.8679565429687504,0.8861572265625001,2.845283203125,1.3749900708079106,5.331914818447642,1.3235910617693811,3.40332275390625,3.73623046875,-0.9436376953125001,2.2245384585431873,1.1379687337908584,5.154548289848365,4.13140869140625,-2.529140625,0.99393310546875,-0.010120012142301104,-0.4042678534740283,0.293480352126732
1.970932,3.9805224609375003,1.07296875,2.85725830078125,1.1733887762889121,5.432582307652638,1.0769823448280438,3.4224829101562504,3.899091796875,-1.0585986328125,1.8953717478093937,1.1515508553502625,5.292233718205462,4.1912841796875,-2.6009912109375,1.01788330078125,0.007456851052221866,-0.35553200552557823,0.2862898171835181
1.976732,4.1218286132812505,1.14242431640625,2.9937744140625,0.9544769346843989,5.535380325729696,0.7683219744878601,3.48954345703125,3.97333740234375,-1.1831396484375,1.478054404993977,1.1374361015728425,5.4448328486670015,4.2008642578125,-2.6536816406250003,1.025068359375,0.08815063208162277,-0.2918824554726845,0.2897519266006211
1.982564,4.28947998046875,1.14242431640625,3.1278955078125,0.7352987769708775,5.6368467632617145,0.4247741938676384,3.58294921875,3.9038818359375003,-1.20948486328125,1.0636665393776477,1.1446266365160565,5.600361456327629,4.1817041015625005,-2.6441015625,1.0538085937500001,0.20746024891717263,-0.25140240690348004,0.29081719103665277
1.988372,4.44515625,1.1160791015625,3.2620166015625003,0.524110102527594,5.753226902898177,0.04846953183944213,3.7074902343750002,3.7673657226562502,-1.25259521484375,0.6370281327469537,1.1582087580754605,5.756422696206273,4.1529638671875,-2.60817626953125,1.09452392578125,0.34248251618419,-0.22477079600268768,0.2828277077664151
1.994176,4.63915283203125,0.9795629882812501,3.43685302734375,0.34221620007518205,5.87093862307968,-0.3411509356391504,3.7577856445312503,3.6643798828125003,-1.2717553710937501,0.2229065832396322,1.170459299089825,5.902363923942615,4.15775390625,-2.57943603515625,1.101708984375,0.4522047530954546,-0.21118867444328357,0.2556634646476068
1.999992,4.888234863281251,0.7807763671875,3.5877392578125002,0.21438446775137865,5.995840878204396,-0.7251787648285765,3.9014868164062504,3.4871484375,-1.23822509765625,-0.1723065225281267,1.1677961379997457,6.0232714374322125,4.129013671875001,-2.4764501953125,1.11847412109375,0.5115932454042216,-0.18961706961364175,0.2207760543675688
2.0058,5.0439111328125,0.5652246093750001,3.755390625,0.12410330679769248,6.117014707803001,-1.0777812931550677,4.090693359375,3.2524365234375003,-1.16158447265625,-0.4854942667214451,1.1579424419664526,6.1311294615804215,4.0859033203125,-2.3543041992187503,1.101708984375,0.5398227529590615,-0.18881812128661796,0.2173139449504658
2.011612,5.154082031250001,0.469423828125,3.89190673828125,0.06551376281594926,6.232329583003432,-1.3747237546989026,4.186494140625,3.075205078125,-1.101708984375,-0.726776661482624,1.1451592687340724,6.218747461444028,4.11703857421875,-2.3231689453125,1.05620361328125,0.5632585705517588,-0.19068233404967344,0.18722022463257043
2.017432,5.25227783203125,0.42152343750000004,3.9014868164062504,-0.02476739813773691,6.350840251511959,-1.5931029640854,4.34696044921875,3.11113037109375,-1.01788330078125,-0.925981111020551,1.0966897368946302,6.301305455236484,4.102668457031251,-2.3638842773437503,1.101708984375,0.5877596525804878,-0.18508969576050702,0.1869539085235625
2.02324,5.2858081054687505,0.31853759765625,4.01165771484375,-0.12623383566975588,6.453904585698025,-1.7528926294901543,4.50503173828125,3.0464648437500004,-0.9005273437500001,-1.0721886548659012,1.044758095638085,6.392385564517195,4.042792968750001,-2.4764501953125,1.05620361328125,0.5773733243291788,-0.19174759848570513,0.18482337965149911
